time_tick,acc_X_value,acc_Y_value,acc_Z_value
0.010286,3.860638,0.876758,-9.358071
0.034431,3.754093,0.995126,-9.244043
0.066868,3.832506,0.756894,-8.951491
0.100704,3.803924,0.785925,-8.847490
0.133698,3.632433,0.869725,-8.966306
0.166849,3.710397,0.671598,-8.916176
0.200665,3.904783,0.847877,-8.952838
0.233145,3.610435,0.876459,-8.972441
0.266839,3.755888,0.809868,-8.827437
0.300544,3.836845,0.726965,-8.710716
0.333513,3.567787,0.949933,-9.194063
0.366841,3.880990,0.987344,-9.007458
0.400879,3.825472,0.905938,-9.147224
0.433556,3.494163,0.826179,-9.001622
0.466956,3.533369,0.712749,-8.735108
0.500883,3.451963,0.578220,-8.759051
0.533593,3.361430,0.899354,-8.866195
0.567001,3.627944,1.010988,-9.147374
0.600798,3.341377,1.466651,-9.670975
0.633575,3.222860,1.243982,-9.256613
0.667064,3.365021,0.611441,-8.975883
0.700769,3.404078,0.653191,-8.519173
0.733592,2.997797,0.442644,-8.144317
0.767184,2.820470,-0.073774,-7.742526
0.800961,2.284599,-1.216298,-6.508121
0.833668,1.931292,-2.114604,-5.651116
0.867351,3.723715,-3.024583,-6.074606
0.900996,3.841783,-5.015732,-5.154002
0.933398,3.083543,-6.398283,-5.916134
0.967084,3.435353,-7.431119,-7.189595
1.001108,3.103146,-8.534736,-7.359889
1.033461,0.972230,-8.003354,-5.514941
1.067103,1.750074,-9.486764,-8.268671
1.100801,0.777096,-14.067036,-13.890307
1.133269,3.271943,-8.727626,-13.385861
1.171099,4.254050,-13.085976,-19.948752
1.201256,3.936208,-8.178735,-18.573234
1.233372,6.096454,-1.435076,-22.184567
1.267576,6.973212,0.663218,-21.556515
1.300167,6.404419,-0.515370,-22.140721
1.333163,2.655115,4.892427,-14.470473
1.367226,2.351639,4.946448,-12.551452
1.401316,0.391616,2.792337,-11.832717
1.433616,7.216830,-6.044528,-18.896013
1.467180,-0.379046,-21.982848,-10.052115
1.500182,-10.945334,-22.792117,11.503652
1.533503,-2.459083,-19.622081,12.370683
1.567365,6.424172,-13.346205,2.272777
1.600222,11.483450,-6.717622,0.107444
1.633702,14.418098,-8.455575,-0.747167
1.667359,26.024255,-12.914785,-10.044932
1.700500,25.216632,-12.383702,-10.428467
1.733581,16.360314,-17.223903,-14.702569
1.767198,16.896185,-18.988493,-14.134225
1.800702,14.469425,-13.987725,-8.564964
1.833703,6.433001,-5.473939,-15.518123
1.867201,1.650113,-10.293938,-18.277988
1.900126,1.473833,-6.069069,-19.271917
1.933166,-5.735365,6.568876,-16.102778
1.967198,-1.366240,3.305164,-10.858990
2.000896,-5.520777,-3.442087,-8.476974
2.033230,-3.791803,-5.210118,-2.803710
2.067196,-5.679997,-4.080913,5.087711
2.100314,-3.612830,-9.734723,1.890439
2.133175,5.874982,-6.276025,1.293663
2.167205,21.511473,-18.237584,-6.618558
2.200340,24.076802,-17.111372,-9.460427
2.234118,24.467819,-25.381239,0.047736
2.266870,24.823969,-8.256699,-2.314677
2.300042,7.340884,-11.093181,0.857903
2.334477,4.915771,-12.452837,-24.098799
2.366998,3.729850,-2.305399,-19.658594
2.400046,-14.098161,3.962396,-13.380174
2.433580,-5.189617,0.401342,-7.136023
2.467622,-6.660608,-3.941296,1.046303
2.500186,0.420946,-3.752447,2.888109
2.533233,3.436251,-14.153080,6.780172
2.566994,5.304992,-10.650537,5.800759
2.601212,24.878888,-19.247076,-7.572681
2.633942,26.104913,-19.321448,-7.831863
2.667199,16.260053,-14.470623,-1.903309
2.700080,12.530502,-4.245221,-8.537579
2.733150,2.703300,-7.906684,-14.810312
2.767210,-1.020266,-5.510452,-16.206930
2.800551,-10.376990,-1.537731,-10.204751
2.833271,-12.331477,0.450425,-1.421758
2.867208,-1.574244,-3.369510,5.511948
2.900418,5.730128,-0.550836,-2.058189
2.933513,1.056330,-5.562378,2.540039
2.967208,9.202143,-8.845844,5.856875
3.000134,28.161306,-18.117272,-7.027532
3.033914,19.023659,-27.907961,-13.728094
3.067001,15.185467,-25.426731,-7.396103
3.100179,8.850183,-4.977424,-6.736626
3.133393,-1.634999,-1.942365,-17.011560
3.166941,0.742528,-3.475607,-19.769928
3.200175,-1.973790,-3.655927,-10.153124
3.233133,-10.439541,-3.111376,1.320300
3.267204,-2.364209,-4.660779,11.108295
3.300247,3.880840,-5.323398,-2.833639
3.333503,-1.740347,-4.818503,9.001771
3.367310,9.763155,-3.348411,14.577917
3.403767,27.513502,-16.124177,-13.770443
3.433476,23.559037,-27.964077,-13.156458
3.467153,17.477698,-31.003774,-8.298001
3.500084,16.446059,-5.093696,-13.857535
3.533552,-10.724910,-3.730449,-14.063893
3.567216,-6.951813,-1.369832,-12.185276
3.600660,-3.846572,1.083265,-3.055559
3.633356,-9.513850,-2.006562,1.219889
3.667209,-2.175060,-6.176064,9.119989
3.700507,0.720531,1.228868,4.718242
3.733169,-4.541813,-3.857346,9.515196
3.767227,12.901317,-0.395955,10.248746
3.800118,30.859817,-21.629242,-9.794281
3.833231,29.444494,-26.939471,-12.184378
3.867272,26.205024,-28.566839,-21.719028
3.900518,-12.167019,-8.258196,-6.676320
3.935225,4.208558,-1.700243,-19.800605
3.966813,2.369297,-5.905509,-17.673281
3.999999,-11.408030,-2.478536,-2.865812
4.033682,-12.351379,0.672645,18.260031
4.066746,3.501944,11.726321,0.464492
4.100658,-21.872112,-10.917201,0.709008
4.133463,-5.450295,-5.474388,17.738525
4.166505,15.138629,-6.428661,2.025118
4.200628,13.664795,-9.378273,-2.530313
4.233133,9.354480,-32.500952,-11.505298
4.266749,17.218815,-30.060425,-17.451959
4.300308,15.584265,-20.554955,-5.250522
4.333475,4.999720,-4.810572,6.134313
4.366672,2.075997,0.970883,4.053678
4.400274,2.073902,-2.505622,-0.774253
4.433588,-2.117747,-4.057569,1.323742
4.466845,-0.691051,-2.938838,1.684680
4.500520,1.376565,-11.061906,-0.936166
4.533561,4.134934,-15.309970,-0.607401
4.566877,3.290050,-17.074260,-0.080059
4.600535,1.990850,-8.596987,4.807130
4.633717,2.511458,-10.232884,2.263200
4.666840,2.135255,-12.504464,1.059023
4.700550,-1.153897,-10.651136,2.191521
4.733318,-1.238146,-12.437574,1.335713
4.766846,-2.377527,-9.410596,3.001389
4.800537,0.395506,-5.440868,3.741223
4.833634,-0.457608,-6.742911,2.791888
4.866841,-3.249197,-8.096581,4.326477
4.900531,-2.151566,-9.564279,5.159988
4.933424,-2.581341,-8.250265,5.847747
4.967122,-2.006263,-8.891335,4.799648
5.000538,-3.539355,-8.863052,5.679249
5.033175,-0.551584,-7.517912,2.555153
5.066999,-1.063213,-9.012546,4.941360
5.100537,-1.743041,-7.745519,5.142181
5.133135,-1.003506,-8.681087,6.203149
5.167246,-1.351874,-13.212874,9.652269
5.200267,3.827867,-16.011496,3.827867
5.233617,4.143613,-14.738633,3.013959
5.267186,1.859763,-14.488131,-1.714010
5.300274,4.448286,-8.759948,-9.682497
5.333503,6.119648,-2.895591,-11.765677
5.367093,-0.700628,-1.724785,-8.449290
5.400271,2.068963,-0.936914,-7.920152
5.433289,6.470711,-1.193851,-9.468059
5.467045,3.918550,-2.993757,-13.122190
5.500272,7.191391,-2.764354,-16.347893
5.533506,7.863737,-3.756188,-15.881007
5.567015,4.533433,-8.865596,-9.188376
5.600266,1.164072,-11.627107,-0.329214
5.633781,0.078413,-19.301546,1.751571
5.667126,-1.433729,-18.737991,5.400913
5.700044,1.019517,-13.280512,4.682926
5.733506,5.572254,-16.648526,-1.831779
5.767585,8.830580,-19.265033,-10.880539
5.800139,14.490525,-21.755690,-13.786156
5.833541,12.431139,-25.383634,-13.634867
5.869172,17.559552,-29.873521,-22.128002
5.900024,10.684806,-26.730869,-29.901205
5.933507,1.510945,-22.989496,-29.170199
5.967117,-9.405059,-21.232239,-22.790770
6.000054,-23.143030,-17.925130,-17.354541
6.033140,-19.281643,-18.384085,-8.131598
6.067009,-13.242952,-18.581763,-1.720595
6.100179,-2.626234,-15.677044,9.508313
6.133884,-6.093311,-15.392274,-1.663730
6.166842,14.296289,-11.371068,3.242314
6.199997,16.446807,-9.160393,10.209839
6.233114,20.721208,-8.066054,-3.418144
6.267410,28.070323,-4.835861,-1.206870
6.300301,28.044734,-8.476674,-0.974625
6.333138,6.970967,-11.479559,-7.173434
6.367211,20.419678,-17.198015,-4.315852
6.399795,13.805460,-9.785601,-12.320852
6.433140,0.221621,-1.057227,-18.030628
6.467219,7.701674,-5.375773,-23.665433
6.499848,-11.190748,0.082603,-12.486058
6.533453,-12.586768,0.781735,-4.487642
6.567228,-8.412029,-2.948864,-0.689854
6.599867,-4.129696,0.522852,-1.144320
6.633455,6.208237,-8.401703,0.206507
6.667204,8.548653,-13.342913,1.903309
6.699841,23.358965,-16.892145,0.778742
6.733455,22.793464,-32.331257,-4.825835
6.767252,14.699277,-17.845670,1.807388
6.800072,12.641238,-9.503973,-4.378852
6.833276,4.424493,-7.910126,-14.501599
6.867780,8.191156,-3.060348,-15.709517
6.899786,-9.862667,-0.442494,-10.118108
6.933443,-12.057780,-1.252511,-8.695452
6.967349,-10.461089,0.467036,-4.995381
6.999801,0.039206,-1.613750,4.123711
7.033112,3.981550,-8.511392,0.671897
7.067574,12.769332,-15.247569,-1.966907
7.099768,25.395007,-11.881800,3.796890
7.133454,16.733074,-15.250412,0.301082
7.166942,18.397553,-20.676465,-5.867500
7.200136,10.867370,3.838042,-3.149984
7.233511,4.417909,-4.149449,-14.257381
7.267852,-1.364295,-6.741864,-14.726662
7.299780,-4.467740,1.877869,-10.537258
7.333446,-8.846741,-3.552524,-12.227325
7.367875,-8.774763,-1.207319,-3.035956
7.400021,-0.195883,-3.093419,2.848453
7.433328,3.812304,-15.015772,-0.889627
7.467816,16.680101,-15.816661,1.807238
7.500067,17.690939,-22.280189,0.419599
7.533623,21.426476,-24.766806,-3.296784
7.566995,18.578770,-13.526525,-3.258774
7.600202,6.189831,-0.864936,-7.575973
7.633339,-3.332099,-2.629376,-19.851783
7.667446,1.310573,-1.298901,-17.908969
7.700013,-11.646112,0.090833,-10.039545
7.733265,-8.739447,-0.995874,-4.551989
7.766884,-0.672795,-1.888344,2.823313
7.800024,1.287977,-6.673327,-1.247274
7.833513,11.658383,-13.611971,5.209670
7.867354,15.778352,-12.209967,-0.398798
7.900036,19.446700,-14.683116,-4.624117
7.933097,19.563122,-17.743912,-9.049508
7.967483,14.886331,-12.986763,-17.384320
8.000170,3.124994,5.880669,-5.059129
8.033714,-4.011329,-4.702230,-15.103762
8.067358,0.338193,2.129419,-16.313176
8.100213,-0.826478,2.280409,-8.297701
8.133587,-9.668580,-2.878981,-0.575826
8.167228,-0.500705,-1.322245,-0.996921
8.200074,5.661142,-10.415748,0.424986
8.233079,7.110285,-14.568040,5.043117
8.266806,23.258105,-15.245025,-4.425690
8.300208,19.109853,-21.120306,-7.775747
8.333427,14.193035,-17.161652,-5.534993
8.366917,14.167596,-1.813673,-10.722067
8.400093,-16.087066,-2.452349,-6.919789
8.433663,-5.543224,3.233934,-9.566973
8.466925,-0.332956,-0.026636,-17.015451
8.500364,-7.167299,-1.401556,-5.852236
8.533471,-3.444930,-0.200222,5.952497
8.567204,5.168218,-4.640128,-2.011201
8.600070,7.732799,-12.992001,-2.504424
8.633460,21.446079,-18.391417,4.242976
8.666934,14.504891,-18.059509,-3.274337
8.700227,14.120608,-15.879960,-7.741927
8.733857,16.586724,-14.802082,-17.602051
8.766955,2.083179,5.843856,-5.771429
8.800138,-4.219931,-4.677390,-15.380003
8.834026,3.080101,-0.677583,-13.425516
8.866928,-7.688655,0.569990,-10.168089
8.900917,-6.765058,-4.410277,-4.738893
8.933106,-1.565714,-2.586429,8.202977
8.967226,2.100239,-11.142115,0.530784
9.000004,19.293764,-20.300712,0.146650
9.033126,28.444880,-19.427994,-1.190260
9.067476,9.480030,-17.493111,-2.559194
9.100017,24.840580,-23.521327,-13.243850
9.133594,10.862881,2.912201,-9.725295
9.166959,-9.193314,-1.513339,-11.393365
9.200028,-1.942515,-5.540829,-19.186171
9.234118,-8.886546,-4.206613,-15.176638
9.266675,-8.842551,-1.630210,-1.876971
9.300083,0.181367,-3.969578,11.335753
9.333374,3.845375,-9.018681,-0.474518
9.366680,19.047751,-15.101966,8.071591
9.400239,26.925854,-16.718110,4.856961
9.433376,11.887785,-19.731620,-8.437318
9.466799,14.176873,-18.667509,-25.439900
9.500258,15.179182,0.985698,-14.778887
9.533414,-16.603932,-1.575142,-8.212106
9.566930,0.235987,3.753494,-16.651519
9.600208,2.426760,-1.544465,-12.484262
9.633942,-7.725916,-7.618023,-2.262302
9.666729,-2.914446,-2.054149,10.673283
9.700530,5.296014,-5.308883,6.394093
9.733658,10.081595,-17.436995,5.605176
9.767060,24.263257,-17.007669,-0.088439
9.799970,18.296544,-20.616159,-14.217576
9.833386,15.149702,-24.271487,-6.567380
9.866729,15.243977,-4.271109,-14.067484
9.900545,-8.027746,4.234297,-11.386781
9.933121,5.204582,2.344456,-16.323053
9.966717,-9.607376,-10.170633,-11.567101
10.000556,-11.928488,1.131151,-1.281243
10.033607,-0.681474,0.312155,6.184444
10.066838,-0.691201,-7.586598,-1.311920
10.100270,6.543736,-10.042538,5.620140
10.133359,22.646664,-15.062161,3.457051
10.166458,15.968848,-15.366685,-11.497068
10.200869,21.027677,-15.834169,-8.614196
10.233674,11.405336,-13.407110,-12.332674
10.266846,-3.550129,2.018833,-2.698811
10.300536,-1.452584,-6.170677,-13.279465
10.333392,1.052738,1.521121,-18.502303
10.366855,0.008230,-0.231198,-7.627451
10.400257,-5.240197,-4.058466,-4.085851
10.433119,-2.135106,0.306020,8.025202
10.466725,4.918614,-16.930453,-0.600368
10.500552,15.306827,-17.002132,5.624779
10.534665,22.762338,-17.845670,-0.697037
10.566679,27.091658,-18.647157,-8.741991
10.600256,9.560987,-11.515923,-9.143932
10.633565,-6.235322,3.150283,-11.691753
10.666839,-6.099596,-1.186968,-13.666591
10.700612,-8.722089,-3.185749,-10.593224
10.733493,-2.147676,0.856257,-4.466543
10.766846,-7.951577,-1.540125,5.927507
10.800261,6.398283,-2.873444,4.542412
10.833826,15.288272,-17.392850,-2.611419
10.867898,21.747011,-17.717575,1.367737
10.900190,23.441418,-14.860592,-4.817755
10.933125,12.730874,-18.636533,-12.689572
10.966718,11.055471,0.414361,-9.755074
11.000283,-1.763542,2.721856,-12.273714
11.034169,-6.573665,-4.748769,-10.037600
11.066703,0.245714,0.018556,-12.354222
11.100249,-11.740686,-0.474967,-6.660308
11.133199,-7.992579,-5.734916,-0.213690
11.166679,2.047714,-3.764867,5.593354
11.200253,6.413846,-17.259518,0.539014
11.233394,23.353578,-19.936930,6.539247
11.266724,29.020107,-20.948516,-2.818076
11.300284,9.825406,-19.207570,-6.043480
11.333136,14.753298,-13.436739,-12.963718
11.366933,-1.330475,2.226837,-12.433533
11.400541,-10.448819,0.728013,-12.464060
11.433239,-1.353221,-7.866879,-11.517269
11.466729,-10.613276,0.488285,-0.517166
11.500261,-3.994569,4.490486,9.537942
11.533106,3.287506,-7.219973,1.160032
11.566853,3.732544,-13.447963,1.092543
11.600625,23.116244,-14.607995,7.039055
11.633627,24.612075,-18.075970,-10.364270
11.666807,15.692906,-17.461087,-13.836735
11.700259,6.874298,-12.455381,-8.928297
11.733134,9.552308,4.363888,-15.743336
11.767188,-6.734232,1.480717,-6.172622
11.800323,-3.736884,-0.483047,-7.807022
11.833608,-4.059813,0.821689,-9.669329
11.867109,-8.405893,-4.115780,-2.635063
11.900319,2.115951,-6.048119,10.251440
11.933332,6.219610,-12.889645,2.815831
11.970046,11.862346,-22.648310,3.494462
11.999729,24.521840,-13.461131,-0.261127
12.033511,14.173282,-20.975153,-11.987148
12.066880,19.505659,-19.865400,-12.928702
12.100087,11.217086,2.991512,-8.813371
12.133879,-9.433791,0.747018,-9.482125
12.166731,-5.550107,-8.385542,-19.361104
12.200214,-5.266085,-2.814485,-12.187819
12.233699,-7.495316,0.594382,8.650859
12.266763,2.092457,-6.496000,13.485523
12.300168,4.109944,-11.822840,-6.200455
12.336256,26.404049,-20.226339,2.106224
12.366501,20.876239,-15.015024,0.499359
12.400082,12.297957,-16.247483,-11.064151
12.433720,7.664712,1.857967,-8.542368
12.466732,9.241649,-1.157488,-13.966027
12.500217,-8.509596,-7.683866,-17.050317
12.533959,-5.561929,-4.861301,-16.004164
12.566734,-4.269912,-0.235538,-8.289022
12.600207,-6.476696,-4.155884,-0.782483
12.633658,-0.373210,-16.467009,-5.912243
12.666508,16.555747,-22.395264,-0.812112
12.699877,17.540997,-14.245260,6.518147
12.733147,16.589866,-16.650771,-1.315212
12.766673,16.782756,-5.335370,0.837552
12.799839,14.274291,-0.260977,-15.391974
12.833377,-4.085552,-3.980203,-13.581743
12.866848,-10.396893,-5.448200,-14.506836
12.900005,-12.627470,0.770811,-8.732713
12.933387,-2.416434,-1.455876,-2.684295
12.966713,2.918187,-6.484927,9.177602
13.000389,7.062399,-14.579114,-3.096561
13.033199,17.848812,-14.609641,5.495188
13.066720,25.177875,-12.388191,1.655650
13.100370,16.993303,-14.776193,-7.078261
13.133206,8.040914,7.289856,-5.244686
13.166948,4.523706,-11.569196,-22.108099
13.200315,-3.789109,-6.726002,-16.322155
13.233691,-12.896080,-0.862841,-10.272988
13.266440,-7.738037,-0.924943,-8.509895
13.300292,-2.703001,-1.371029,3.953118
13.333551,2.388152,-25.486139,-7.069432
13.366483,16.760010,-23.102776,6.686795
13.400263,18.954374,-11.775703,9.598548
13.433493,18.487488,-19.272365,-4.304629
13.466714,10.553270,-8.705329,-1.255205
13.500560,8.073087,2.852494,-19.143523
13.533138,-4.996428,-2.649877,-13.145983
13.566718,-8.061864,-0.699132,-8.134591
13.600553,-19.367389,-1.258796,-3.981400
13.633106,7.295842,-1.207469,0.091282
13.666722,-7.784426,-11.189102,6.171125
13.700551,-1.010988,-17.181704,11.634589
13.733288,28.227149,-28.130031,-10.704259
13.766462,20.805757,-25.614383,1.587412
13.800258,1.992346,-18.322133,-4.010880
13.833414,2.882722,2.616058,1.992346
13.866748,10.974514,-1.144320,-4.008785
13.900316,7.767068,-1.588610,-5.378018
13.933146,0.771409,0.849972,2.037089
13.966733,-1.389135,-1.955684,1.500619
14.000264,1.403202,-2.202744,1.818760
14.033563,0.841143,-15.673153,4.298344
14.066787,-4.242677,-25.767468,5.299306
14.100272,-2.196459,-24.931413,5.616399
14.133216,3.084291,-21.462989,2.172516
14.166708,-0.782633,-16.727837,4.249261
14.200679,1.383449,-10.504785,2.268886
14.233114,0.636731,-9.533752,2.506370
14.266568,-1.328081,-5.837871,7.298984
14.300274,-1.150006,-9.527018,3.466329
14.333093,-1.606567,-15.690213,-3.734190
14.366711,0.017359,-8.792421,-0.861494
14.400280,0.612339,-5.656204,-9.709134
14.433491,1.997584,0.266364,-8.356212
14.466713,5.658149,2.836332,-7.990484
14.500838,2.062080,1.915130,-7.807621
14.533370,4.501260,-0.324725,-11.303879
14.566719,9.377525,1.173650,-7.571783
14.600445,11.910082,-0.051178,-17.842078
14.633302,15.059468,-2.266941,-21.452663
14.666743,11.939113,-3.159412,-9.017334
14.700403,3.062742,-7.330858,-7.223115
14.733096,5.198446,-12.808538,0.181367
14.766724,3.403778,-10.152226,0.324576
14.800317,-5.140983,-14.891568,4.925797
14.833096,-8.025651,-15.329573,11.086747
14.866718,-3.887125,-16.308238,6.400528
14.900481,6.723158,-22.317151,-2.383962
14.933065,12.197247,-18.662421,-8.740645
14.966682,15.768326,-26.191556,-13.697118
15.000444,14.037257,-28.031117,-19.315163
15.033488,11.893621,-32.860244,-15.159279
15.066766,9.310335,-36.140567,-32.221269
15.100893,-4.683675,-22.518420,-26.698546
15.133616,-11.138074,-15.913181,-21.679223
15.166715,-15.823544,-13.964231,-19.038474
15.200613,-16.622339,-17.524985,-7.675486
15.234047,-11.940909,-18.288613,-0.222968
15.266709,-9.990612,-20.911854,-1.094489
15.300536,6.100494,-17.747205,3.879643
15.333174,18.338743,-17.207442,2.204540
15.366724,19.507754,-12.786242,8.482660
15.400769,29.376407,-7.814504,4.736648
15.434160,16.652267,-9.281155,1.560477
15.466840,19.515984,-17.311893,4.089143
15.500264,18.785727,-7.649299,-9.684592
15.533156,6.017891,-5.782054,-0.167450
15.566843,6.830003,-11.497217,-15.782842
15.600251,11.998521,-4.146456,-18.641471
15.633902,1.150006,-1.817863,-8.192951
15.666842,1.328231,-1.304737,-17.627640
15.700543,-10.738378,-7.912072,-11.342486
15.733640,-6.192524,-5.883063,-5.189168
15.766880,-7.548439,-3.311898,-0.730258
15.800255,-3.396895,-13.241755,-12.964766
15.833853,23.809989,-26.442208,-3.641262
15.866669,29.930535,-24.260863,7.069282
15.900405,10.371004,-32.689352,-3.015605
15.933578,28.833353,-40.533186,13.506623
15.966664,48.902118,-18.934921,-15.057672
16.000144,-5.417224,-21.117613,-10.060346
16.033488,-29.970190,1.902111,-30.476582
16.066774,-11.806080,-3.467975,-37.554992
16.100157,-21.644805,-8.608510,21.824227
16.133802,-5.208023,-2.844862,35.378137
16.166442,3.161656,-3.669993,15.075779
16.200261,6.370300,-12.184378,17.678967
16.233557,16.283547,-18.141963,-3.030868
16.266872,6.412649,-1.216597,-24.374142
16.300545,-22.529195,-3.190088,-10.369957
16.333114,-25.319138,-0.419748,-10.427420
16.366963,-13.591321,-8.078026,-9.476589
16.400181,5.675957,-8.666272,3.598314
16.433870,24.133816,-22.156733,-1.341549
16.467474,28.577014,-26.160131,-3.827118
16.500020,48.358615,-50.235137,-6.706398
16.533942,29.196835,-19.841907,-2.436187
16.567255,29.175287,-4.003547,-19.416472
16.599772,-31.419033,-9.001323,-21.980005
16.633609,-19.089951,-0.746120,-23.226231
16.667067,-27.617953,5.373379,11.393964
16.700046,-3.851361,-0.767818,25.747116
16.733710,-2.903073,-3.177069,31.586932
16.766977,20.887761,-27.711330,3.369361
16.800525,26.130202,-2.531061,-19.415125
16.833661,-13.283804,-11.108445,-5.904611
16.866859,-45.729837,-7.502648,6.891656
16.900353,-22.339597,-1.580529,-4.540167
16.933564,7.529883,3.164948,4.493927
16.967209,24.718321,-4.457564,6.625591
17.000022,-2.089315,-17.090871,7.421692
17.033644,41.644734,-38.197559,6.715078
17.067151,37.614550,-54.738941,-21.621012
17.101383,22.691856,-22.245172,-17.493410
17.133581,12.854329,-6.316429,-24.671184
17.166901,-25.234290,-8.408886,-17.934857
17.200031,-6.718070,-13.309992,-18.589096
17.233444,-23.464164,11.516970,15.715203
17.266785,-17.509721,13.873398,23.158443
17.300133,3.241715,-15.268818,23.322601
17.333978,14.373804,-14.299132,18.063999
17.366740,15.756056,-9.836629,-18.642668
17.400174,-10.474258,-19.142026,-8.978726
17.433264,-33.419759,-2.692077,-28.203954
17.466726,-12.013635,-4.282482,-25.558267
17.500170,-2.292979,-12.938728,2.306297
17.533485,17.572721,-23.116244,1.701889
17.566703,39.771653,-32.186103,8.076978
17.600233,23.931499,-24.630481,8.136087
17.634019,49.134513,-45.342711,-24.367109
17.666711,36.974079,-5.684636,7.665460
17.700199,-20.901379,-8.884302,-19.520324
17.735508,-15.132044,-5.247829,-17.318777
17.766677,-29.074876,10.986037,19.567611
17.800046,8.283336,-5.751676,19.801204
17.833546,18.495719,-4.361493,12.792527
17.866670,2.444118,-25.247159,11.043051
17.900233,29.384488,-2.332335,-16.945118
17.933087,0.537667,-14.058506,-19.855823
17.966482,-37.574596,0.572833,-7.765571
18.000057,-19.683734,1.532942,-7.687009
18.033275,-1.196844,-4.799498,-1.210911
18.068726,20.569770,-12.355868,-6.129525
18.099770,5.111055,-21.520900,26.713062
18.133708,4.148252,-20.359671,24.726552
18.166671,52.779516,-35.644351,-10.732243
18.199773,77.302853,-36.368474,-31.051360
18.233666,-50.047335,-27.230078,6.853797
18.267086,-3.448671,2.775128,-41.329287
18.300001,-9.781860,10.951769,-7.077214
18.334007,-32.302974,-14.051173,21.402234
18.366858,-13.067271,12.713216,14.960254
18.400049,-12.850738,-13.589375,38.622096
18.433961,8.538327,-26.709321,4.082110
18.466744,-8.081617,-21.560855,-6.356683
18.500067,-0.407927,-6.635318,3.999956
18.533643,20.047067,1.104964,-11.846185
18.566729,6.538499,-6.028815,-13.944179
18.600047,10.783720,-0.774253,-4.125357
18.634069,7.924791,-9.342808,-13.932507
18.667179,16.018978,-24.252483,-11.176383
18.700051,7.477957,-27.377027,3.175573
18.733621,8.759948,-23.707483,-2.568920
18.766783,3.030719,-14.359737,-7.679377
18.800341,-2.955299,-3.976612,1.424152
18.833202,-4.065350,-6.593268,-1.474432
18.866723,-3.562699,-13.645342,-5.206677
18.900521,-6.758923,-12.209069,-1.813224
18.933627,-7.216830,-10.023833,0.420646
18.966722,0.663966,-8.345737,4.661378
19.000261,7.227455,-9.171018,6.125933
19.033731,5.394628,-8.399758,-3.375945
19.066729,5.520029,-8.257148,4.718691
19.100421,5.828144,-8.815017,1.545363
19.133350,3.772050,-8.434026,1.203429
19.166454,-0.077365,-10.395845,1.775065
19.200400,0.902197,-14.640168,1.679443
19.233423,-1.967356,-14.229398,2.008957
19.266855,3.052267,-11.254646,3.745563
19.300387,6.027319,-9.881373,2.459083
19.333802,4.222325,-10.231238,2.300012
19.366676,0.927487,-9.005812,1.485954
19.400278,4.459659,-8.508099,0.420197
19.433139,5.634057,-8.409335,-0.944397
19.466715,4.616485,-7.706612,0.328317
19.500632,4.862648,-7.794751,0.903993
19.533481,2.968916,-10.040443,0.408825
19.566716,3.520201,-9.635659,1.726131
19.600210,4.804586,-8.432829,2.771836
19.633230,5.061523,-10.227198,0.838449
19.667215,4.753707,-8.769526,3.696181
19.699743,5.229123,-8.556733,4.392619
19.733156,1.129056,-8.164370,3.114668
19.766940,-2.493201,-7.231346,4.010880
19.800079,-1.911539,-10.323717,2.828701
19.833702,-3.631236,-9.146626,3.495510
19.866875,-5.992751,-7.989138,3.494013
19.900042,-4.213048,-10.401831,4.493329
19.933844,-4.431676,-11.484348,4.642074
19.966991,-2.862969,-10.545787,2.928812
20.000060,-3.058552,-10.855399,3.198169
20.033893,-1.535786,-10.042688,0.700030
20.066769,-0.942002,-6.208237,3.167343
20.100177,-1.728675,-5.903863,3.478001
20.133644,-2.504724,-10.279872,1.771324
20.166768,-3.294988,-10.917500,4.418058
20.200079,-3.874854,-12.769931,3.729551
20.233395,-1.458719,-12.195751,-0.367373
20.266709,-1.422955,-8.000361,-1.187117
20.300278,-2.707340,-2.624288,0.554277
20.333134,-1.774466,-0.165655,0.549040
20.366635,-0.421544,-6.157059,-2.638654
20.400622,-0.688358,-9.908458,-2.903073
20.433272,-0.024093,-9.586277,-0.003891
20.466731,2.125977,-8.380155,3.447624
20.500559,-0.148446,-10.569281,3.842232
20.533113,-3.461990,-13.875044,2.327546
20.566718,0.706464,-11.237437,3.965538
20.600557,1.318205,-11.778696,4.057120
20.633119,0.832763,-10.340328,3.949077
20.666718,0.976720,-10.968379,3.958206
20.700556,-0.660225,-10.430113,3.516310
20.733148,-0.597375,-9.159495,3.830560
20.766838,0.842490,-9.975498,2.591068
20.800573,-0.553080,-9.964574,1.968254
20.833423,-0.877057,-8.908095,2.583436
20.866587,-0.816602,-10.041491,1.408589
20.900630,-4.233399,-10.725060,1.913933
20.933200,-4.115630,-10.113319,2.573260
20.966726,-4.122514,-11.866985,1.727628
21.000554,-4.081362,-11.324679,2.926567
21.033378,-4.312410,-11.220079,4.141069
21.066776,-4.026293,-12.020070,4.043502
21.100555,-1.969002,-12.378764,2.574757
21.133348,-1.282590,-13.987874,0.441746
21.166610,-2.849651,-13.202997,-2.990614
21.200572,-2.810594,-9.146177,-2.137799
21.233148,0.427530,-6.911409,-6.832847
21.266862,1.639039,-4.743831,-8.250564
21.300618,2.813736,-2.712278,-5.154751
21.333262,-1.383898,-1.828338,-5.587967
21.366857,1.603574,-1.182927,-8.498223
21.400574,5.093846,-1.958527,-10.198316
21.433175,8.444202,-2.690879,-9.923871
21.466840,11.203318,-1.690217,-14.447129
21.500557,15.375813,-3.138761,-18.748316
21.533312,14.539907,-3.225853,-15.794514
21.566732,9.070907,-2.830197,-7.123004
21.600554,6.321816,-4.810572,-12.039074
21.633145,9.837378,-3.975265,-6.160501
21.666871,1.981123,-6.508720,-2.044422
21.700821,-4.310764,-7.867179,-0.313951
21.733487,-6.482532,-8.586213,2.590469
21.766838,-2.189725,-8.917672,6.164691
21.800543,0.480354,-9.803109,1.406943
21.833137,-2.403116,-9.824508,2.561289
21.866960,-3.497455,-14.677878,4.781541
21.901555,7.210994,-23.596897,-4.664371
21.933790,22.583814,-27.226786,-20.156306
21.966716,17.199960,-29.047492,-6.159603
22.000538,10.515709,-41.923968,-5.751826
22.034150,14.695686,-34.202542,-27.078639
22.066721,-1.224678,-30.553199,-23.422862
22.100430,-14.129586,-25.272000,-19.462412
22.134314,-17.140402,-21.977311,-13.595062
22.166465,-19.674755,-22.996978,-5.198147
22.200810,-16.168621,-18.974277,1.296357
22.233514,-11.039160,-17.739273,5.664883
22.266709,-2.950959,-13.261957,9.654664
22.300546,-2.381268,-9.846057,2.401021
22.333337,11.421947,-12.417072,5.976141
22.366712,25.464591,-10.954462,6.047969
22.400669,33.098326,-10.402878,5.295565
22.433166,18.402042,-11.776301,-0.543204
22.466715,25.914417,-20.610323,-2.032451
22.500265,20.021029,-19.665627,-11.082706
22.533393,3.937256,-9.400570,-1.140130
22.567072,0.936914,-7.734445,-8.462159
22.600725,5.917630,-3.995916,-11.128048
22.633460,6.342018,-3.382828,-12.548010
22.667202,5.301850,-1.458420,-11.773009
22.700340,5.974495,-2.467463,-11.682924
22.733233,-8.574242,-4.560818,-7.963399
22.767500,-10.932315,-5.268928,-5.909999
22.800219,-8.140427,-3.072918,-6.321816
22.833613,2.607229,-2.562037,-2.186134
22.867406,6.950017,-4.357902,-4.238786
22.900077,1.134144,-15.182773,-3.988733
22.934039,37.727082,-29.490584,-2.375282
22.967223,25.695490,-28.684308,2.380969
23.000077,11.664518,-37.702690,11.353560
23.033718,53.671688,-10.024581,-32.459650
23.066951,25.303575,-18.990438,13.132216
23.100080,-36.758443,-12.406897,-7.704816
23.133664,-17.392551,-5.941872,-24.651281
23.166741,-15.630804,8.088201,-0.755996
23.200301,-16.422266,0.828423,40.941412
23.233633,5.665183,-10.574818,17.369955
23.266768,18.867282,1.566462,17.759625
23.300524,2.634165,-8.464703,7.085294
23.333599,15.787181,1.174099,-16.627726
23.366824,-2.339967,-6.177560,-6.005770
23.400336,-28.059848,-12.068255,-10.697525
23.433194,-5.453887,-8.045403,-16.590315
23.466910,-2.707041,-10.026676,-4.740838
23.500383,11.511134,-30.577591,-5.154152
23.533593,36.258037,-14.466732,2.479135
23.567181,14.890072,-27.850348,7.649149
23.600917,39.562303,-32.138367,-5.336267
23.633137,20.692327,-3.928876,-7.442941
23.666849,-17.719820,-13.155261,-14.708106
23.706419,-12.127513,-7.024390,-21.636275
23.733343,-8.721191,2.495296,10.831007
23.766714,-10.248896,5.325194,29.807079
23.800598,3.272093,-1.556885,12.692415
23.833620,9.077341,-12.216850,9.105175
23.866744,9.981334,-10.884280,-9.573856
23.901114,9.790689,6.969920,-18.443194
23.933403,-22.602071,-8.289172,-7.110135
23.966727,-34.351436,-6.802319,-10.856297
24.000378,-7.483494,-11.692501,-11.951234
24.033395,8.625569,-1.962567,7.961154
24.066715,19.067804,-6.406364,9.323205
24.100864,20.781964,-17.374294,-2.536747
24.133469,25.694143,-27.407854,4.095877
24.166974,48.623483,-46.522196,-23.995995
24.200115,34.568867,-13.897640,-5.476333
24.233542,-17.728200,-7.234189,-30.382007
24.266994,-8.294858,0.967142,-35.468072
24.300011,-12.931844,-7.079907,-9.906812
24.333187,-23.113700,-10.849563,45.178852
24.367224,15.931287,-16.028555,16.603334
24.400253,12.847446,13.969768,15.283932
24.433278,8.641880,-16.216507,0.024392
24.466956,45.221500,-2.301808,-25.695789
24.500064,6.356234,-3.513018,-0.017658
24.533881,-36.446138,-1.362200,1.726730
24.566873,-9.547819,-6.290989,-12.959678
24.600113,14.120458,-3.545490,-11.935222
24.633263,13.707444,-8.073536,4.683076
24.666875,17.330898,-15.538325,1.171854
24.700358,26.641981,-24.097902,-0.564752
24.733628,26.665775,-27.842267,1.538030
24.766821,16.483171,-22.070539,-2.970263
24.800048,32.248803,-5.574200,-27.339916
24.833127,-26.668318,-10.525735,-13.159301
24.866820,-17.880985,-6.073259,-16.250625
24.900398,-20.237562,4.078818,11.911130
24.933824,5.988411,-2.758668,22.212400
24.967070,14.546641,-9.383062,10.806016
25.000265,8.849734,-13.995806,8.746481
25.033612,19.119580,-3.044186,-11.983557
25.067022,2.914446,-5.326541,-12.593801
25.104041,-36.379098,-6.890010,-0.110885
25.133405,-22.074130,-2.604386,-16.808644
25.166434,-1.434178,-2.255718,-14.668750
25.200113,12.069003,-6.259864,-0.344478
25.233541,41.677356,-27.109316,0.765723
25.267244,23.394430,-31.306053,1.749625
25.300013,31.230333,-39.361632,-2.962032
25.333323,39.904536,0.908482,-13.882077
25.367233,-1.780601,-4.989395,-12.642285
25.400066,-20.906317,-7.789364,-24.032957
25.433517,-17.207742,-9.069709,-11.623366
25.469098,-22.382694,0.580764,22.604166
25.500064,-0.846381,-4.922355,20.352339
25.533595,10.485481,4.931483,16.944071
25.567224,4.139423,-4.914873,18.344579
25.600313,15.926050,-14.324421,-18.436460
25.633679,13.687990,1.835371,-19.782049
25.667221,-17.407665,-5.265337,0.584056
25.699786,-41.421168,0.482449,-9.767195
25.733455,5.034887,-9.045018,-14.923442
25.767310,12.717855,-2.731133,-0.395357
25.800067,11.241178,-21.745215,5.838020
25.833132,23.993600,-19.847144,4.016267
25.866951,25.450823,-18.174734,-6.086577
25.901088,36.489086,-40.407187,-13.012352
25.933710,49.529720,-5.818118,-25.402788
25.966825,-31.874846,-18.391118,-5.304094
26.000193,-21.425129,5.050898,-27.141190
26.033128,-0.086494,-5.035036,-11.671701
26.066850,-33.343741,7.353155,37.324842
26.100296,-11.447536,-6.714479,7.077513
26.133395,27.583385,-18.847230,23.247331
26.166922,16.281602,-18.536122,8.682433
26.200424,37.149161,3.913612,-32.018952
26.233136,-3.149984,-18.302380,-8.667020
26.266923,-41.570062,-11.428531,-4.711508
26.300166,-14.742673,-3.176022,-13.281859
26.333189,-1.337958,-9.654813,-8.340948
26.367413,21.547387,-16.744896,5.379065
26.400228,39.494814,-32.171438,-7.851765
26.433158,21.874956,-22.009185,12.814973
26.466934,24.603096,-30.076736,-4.625912
26.500019,37.979679,-7.862091,-23.473442
26.533724,9.266490,-15.302787,-8.972890
26.566739,-31.761117,0.539463,-14.469874
26.600047,-9.547519,-3.046132,-4.231903
26.634348,-15.975582,-0.357647,27.794831
26.666475,10.402429,-2.766300,19.637644
26.700626,1.443755,3.485932,21.661116
26.733405,9.237459,-10.861684,7.759286
26.766740,19.605022,-6.388108,-13.074454
26.800754,4.354759,-11.770166,-8.985161
26.834044,-31.215369,-3.973320,3.132476
26.866672,-15.247120,-3.631685,-10.864078
26.900071,4.143464,4.218435,-6.381075
26.933101,11.336501,-12.289577,0.518662
26.966618,22.106304,-18.789168,1.742143
27.000016,37.084066,-24.647839,4.388728
27.033376,42.785762,-39.187597,-14.999311
27.066709,32.388121,-21.889022,0.469131
27.100026,11.897811,-7.211593,-9.060132
27.133376,-34.316420,-7.021846,-20.942231
27.166856,-6.515454,-12.425752,-27.476540
27.199997,-21.353151,-1.554641,39.922793
27.233165,-1.241438,-13.352790,32.096317
27.266950,8.731666,5.647824,15.056325
27.299998,11.036317,-24.324760,4.225019
27.333127,18.399947,-8.390480,-11.949139
27.366965,23.969658,4.115480,-18.626507
27.400077,-56.747598,-9.510707,7.366623
27.433748,-12.955188,1.082218,-20.328246
27.466510,9.634013,3.229295,-14.877651
27.500015,8.650859,-12.794472,9.057139
27.533584,27.935944,-33.753463,-1.065458
27.566993,24.916598,-9.716167,1.848390
27.599999,43.986347,-46.676927,-10.486379
27.633785,32.923094,-18.341586,-10.555065
27.666681,20.164088,-3.142053,-7.591686
27.700077,-31.813791,0.143807,-28.876001
27.733665,-9.709583,-5.636900,-23.317963
27.766693,-19.902961,3.062593,19.099827
27.800046,-8.840157,-5.468402,23.340259
27.834305,16.272922,-14.749258,23.171163
27.866949,25.908282,-17.708896,5.540979
27.900011,20.103183,2.616956,-14.303022
27.933120,11.387978,-9.737715,-24.542341
27.966917,-44.237448,-13.927119,-1.897473
28.000052,-18.896313,-6.072960,-16.118491
28.033144,4.858906,-9.626680,-9.169372
28.066980,31.204445,-33.061364,14.402385
28.099806,34.673618,-23.870295,5.363353
28.133109,25.201369,-22.515128,13.307747
28.166714,37.453385,-39.872513,-12.443559
28.200164,25.967241,0.584356,-9.856831
28.233096,4.264225,-9.451449,-24.630630
28.266669,-28.437098,-3.499849,-28.416747
28.300016,-12.776664,-1.121724,-4.921158
28.333148,-18.691302,-9.405059,34.423714
28.366798,-1.201633,-8.522764,19.788185
28.400070,11.579671,-5.238700,21.777089
28.433808,5.438324,-14.748659,-7.199322
28.466728,26.972393,-1.206122,-30.276360
28.500432,-33.517327,-10.704110,-0.469729
28.533198,-39.280376,2.877634,-13.753234
28.566742,-3.493564,-0.385929,-12.090552
28.600248,15.439261,-3.223758,-0.588396
28.633136,26.947552,-27.211672,5.479476
28.666630,21.393405,-19.971497,-0.098615
28.699958,23.027206,-26.275206,-2.077493
28.733179,45.294675,-42.829607,-25.011771
28.766636,54.408380,5.562079,-9.942876
28.799973,-51.803395,0.885437,-10.808111
28.833485,-14.688802,-1.127410,-13.776279
28.866682,-7.149491,1.273312,15.506301
28.900001,-6.330196,-0.880948,23.717958
28.933697,29.775505,-16.727238,17.312791
28.966681,14.607845,-14.691196,5.794773
29.000056,22.885794,-4.057718,-31.236319
29.033293,-6.147781,-12.738356,-12.813177
29.066628,-56.471657,-10.499248,7.618173
29.100047,-11.594934,-0.296143,12.819163
29.133169,16.954396,-0.543354,5.675957
29.166814,29.246367,-9.174908,4.033476
29.199784,14.030672,-21.476307,5.752724
29.233722,26.988704,-26.821553,3.311449
29.267151,51.588957,-39.458900,-30.970703
29.300009,21.093819,-15.261785,6.513209
29.333578,-15.522762,-9.427655,-11.053526
29.366477,-18.117571,-4.186411,-21.232239
29.400047,-1.144320,2.344306,3.989930
29.434218,-25.399646,12.454483,38.942332
29.466865,-8.541170,-11.106051,15.489092
29.500073,24.837587,-11.250157,28.980152
29.533544,24.719668,-17.558206,-13.272282
29.566848,26.774715,-0.952178,-24.383720
29.602329,-52.121237,-17.595616,3.751399
29.633434,-35.471214,-5.400913,-20.296821
29.666719,-4.669010,-9.853539,-6.439286
29.699913,2.469408,-13.558250,7.665610
29.733620,24.314136,-17.035952,8.919318
29.767396,33.709169,-13.408307,-1.126662
29.799759,30.608417,-10.082642,8.000511
29.833530,29.155534,-24.009912,-17.869463
29.867194,38.360670,-23.562329,-32.333651
29.901074,-12.563274,-21.037254,-4.458612
29.933114,-47.038016,5.474089,-11.159323
29.966665,7.341932,7.600216,4.228910
30.000650,-12.956236,8.624222,34.988466
30.033224,-17.036849,-4.527896,27.045718
30.066846,12.308731,-17.865273,14.025285
30.100382,11.213345,-9.118493,0.321882
30.133382,33.271164,-3.891016,-33.348978
30.167311,-33.549200,-19.883657,-7.675785
30.199913,-30.193008,2.839176,-20.060834
30.233181,-5.398968,-6.723907,-8.363095
30.267227,5.253216,-10.828613,3.498502
30.300003,18.276641,-10.244556,3.792401
30.333395,25.479854,-26.451037,-5.504317
30.367129,26.209064,-25.013567,12.025606
30.401084,33.701687,-41.630817,-9.752680
30.433450,42.747902,-15.343490,-15.740044
30.466841,-7.908929,-12.819612,-5.627772
30.500458,-33.716801,4.625015,-21.528083
30.533599,-0.452371,-4.113535,-28.251541
30.566987,-25.254342,-2.768095,35.523440
30.600373,-4.082409,-4.678437,38.912104
30.633158,7.082002,-3.944738,18.014168
30.667201,5.309182,-17.426819,2.734874
30.700175,15.926648,-5.253964,-17.680464
30.733705,25.289808,-10.823974,-18.285171
30.766957,-52.461824,7.514321,3.320727
30.800020,-7.436656,-5.356170,-14.500551
30.833922,14.351357,2.734575,4.710161
30.866745,20.191921,-11.638480,17.717725
30.900087,32.179219,-24.061389,-20.527720
30.933394,24.834594,-29.715049,4.263926
30.966822,28.434405,-55.898225,-13.316427
31.000009,55.415776,11.671102,-17.369356
31.033334,-23.770034,-6.408160,-1.531596
31.066824,-12.537385,-12.911642,-36.056468
31.100001,-5.084418,5.439970,4.639680
31.133674,-33.383845,-2.651972,59.490404
31.166519,6.876542,-13.898687,13.616311
31.200006,15.687968,-8.328827,21.280275
31.233076,17.506579,-6.329448,-13.195665
31.266797,11.953030,-2.771986,-21.636574
31.300004,-30.949154,-16.416280,6.756229
31.333403,-47.702580,-3.521697,-3.174226
31.367220,-3.349009,-6.129974,-8.565562
31.399794,24.859883,-1.506306,5.461519
31.433585,22.481010,-2.347299,6.525630
31.467222,26.539925,-19.279997,-1.306832
31.499995,31.054952,-22.496572,8.744685
31.533388,29.124259,-43.585154,-18.081657
31.566636,33.307078,-8.513636,-17.478895
31.599997,-37.356117,-9.387701,-17.096557
31.633135,-28.541399,3.157017,-18.116972
31.666713,-5.391186,11.727218,15.612099
31.700870,-29.082358,-16.326494,36.379996
31.733330,-6.484478,-14.989734,17.038047
31.766575,16.719158,-16.682046,2.952455
31.800136,23.324696,-7.054019,-7.216082
31.833128,28.707204,-0.259182,-28.610983
31.866686,-34.589668,-14.644208,-4.776902
31.899824,-33.765734,-2.326798,-11.083155
31.933148,-9.491702,1.866496,1.558232
31.966944,14.926435,-3.897750,17.708896
31.999875,31.470361,-3.621359,2.762409
32.033455,26.898170,-32.539260,-7.443390
32.067253,42.687746,-49.264703,-4.186112
32.099757,31.842523,-21.372455,-12.632708
32.133398,13.447065,2.290585,-5.839217
32.166792,-19.368436,-7.508335,-19.632257
32.199757,-22.221229,-17.459890,-28.067929
32.233506,-17.507626,-8.652505,13.447214
32.266663,3.667749,-3.453909,41.142832
32.300548,4.014771,-0.844585,24.140999
32.333416,9.941679,-12.129010,20.069663
32.366718,13.270337,-1.836718,-15.597733
32.400927,15.140873,2.423019,-28.407469
32.433129,-0.131087,-6.632175,7.922547
32.466666,-34.121734,-7.029926,-20.774781
32.500246,7.772604,-8.807385,-8.896423
32.533112,7.687009,-3.061246,-3.274936
32.566730,10.906726,-22.586059,-6.479091
32.600651,43.128743,-16.231022,-4.405189
32.633152,19.689720,-6.299818,12.005105
32.666707,29.394663,-43.282427,-4.915023
32.700558,33.546208,-1.256552,-11.132687
32.733689,9.952453,-15.846739,-9.941679
32.766775,-31.098797,-4.989694,-12.306786
32.800531,-7.275042,-2.617854,-17.418888
32.833691,-21.590484,9.631319,10.946232
32.866714,-11.923400,-5.994248,24.524384
32.900479,9.055793,-10.594870,30.023613
32.933643,20.538794,-14.460148,5.727733
32.966717,34.481476,0.306020,-13.683052
33.000246,27.618701,-2.417033,-18.068488
33.033163,-26.280145,-18.731706,-2.190922
33.066737,-28.288503,-9.098291,-15.431779
33.100255,-11.600770,-12.751524,-15.645619
33.133128,18.623364,-20.796030,-29.531287
33.166728,19.533343,-21.880193,-6.825514
33.200277,21.332949,-25.371962,2.975500
33.233439,15.695300,-11.000403,-4.305228
33.266711,-5.172408,-7.291802,12.057480
33.300532,4.691456,-9.376627,2.637756
33.333225,17.243806,-5.641838,-0.283723
33.367410,6.935502,-4.744879,-4.031531
33.400325,8.050491,0.759288,0.320984
33.433148,4.470882,-1.856321,-2.288190
33.466668,4.384688,-2.776924,-2.325751
33.500218,4.961711,-1.195647,-1.514087
33.533494,1.596541,-0.464791,-0.086344
33.566447,0.802685,-0.666061,-1.391679
33.600186,0.356300,-0.619671,-0.410770
33.633182,2.629975,-0.347770,-0.046539
33.667244,3.948030,-6.437041,-0.335200
33.700325,4.171596,-25.553179,-2.555303
33.733605,3.954764,-43.096271,-5.470647
33.766912,2.937790,-37.758507,-6.115009
33.800331,2.802214,-10.871560,3.108982
33.833630,1.452883,-3.878446,1.497178
33.866781,1.120975,-8.347832,-1.631856
33.900357,3.686753,-6.016544,-1.411881
33.933123,3.718029,-4.639680,-0.051776
33.966604,2.304801,-5.330581,0.336248
34.000158,0.410920,-5.534993,1.561823
34.033426,-0.230151,-7.649149,0.689704
34.067033,0.966544,-8.165716,0.023344
34.100024,2.826606,-7.974922,1.259395
34.133280,2.395784,-14.601560,-1.039270
34.167323,0.767668,-13.579349,-0.046689
34.200101,0.203514,-11.938365,4.299541
34.233588,0.629548,-16.627576,2.597652
34.267127,-1.704433,-13.542238,5.219247
34.300266,1.021163,-7.853262,5.108212
34.333866,0.879152,-6.956452,3.138013
34.366690,0.038458,-9.352983,5.658000
34.400229,-1.190410,-5.314120,5.024861
34.436885,1.988904,-20.749641,6.433749
34.466472,3.056607,-15.448539,5.728931
34.500240,7.041898,-14.683864,5.073195
34.533885,3.431313,-11.316149,-3.829662
34.566625,5.667727,-8.780150,-5.448350
34.600397,11.916068,-4.124908,-12.294964
34.633626,3.229145,-4.260784,-9.018681
34.666556,1.826243,-1.638441,-7.543501
34.700320,6.554960,-0.212942,-8.824744
34.733236,5.201738,-2.660053,-9.732628
34.766711,6.962288,-3.819038,-10.900292
34.800260,11.663022,-4.097224,-12.807940
34.833691,9.650025,-6.110071,-15.066202
34.866831,8.228566,-8.502413,-11.942106
34.900657,8.909891,-3.278527,-13.386011
34.933112,9.769739,-7.226108,-10.680466
34.966790,0.370067,-5.052395,1.827589
35.000542,-0.522104,-4.378852,-1.498674
35.033110,5.156397,-7.759885,-2.276967
35.066749,-3.220316,-7.852364,3.052267
35.100544,-7.768265,-7.518511,6.931761
35.133109,-5.226729,-13.663299,8.249516
35.166730,-3.520051,-17.236324,4.241779
35.201338,1.092992,-19.773071,-0.744025
35.233122,13.805160,-28.679969,-8.878615
35.266882,17.687497,-33.835916,-8.155840
35.300580,17.895052,-40.573889,-11.035569
35.333197,16.359566,-42.166090,-14.608144
35.366842,10.008270,-38.327000,-26.764988
35.400076,-1.469643,-30.622184,-25.718535
35.433817,-15.237393,-24.491014,-19.000764
35.466825,-20.028212,-21.759282,-14.291500
35.500006,-17.602949,-25.333354,-5.640641
35.533332,-13.612720,-17.675975,6.978449
35.567090,-6.508570,-16.595253,6.281562
35.600028,4.581020,-15.257146,-1.047201
35.633673,20.604487,-17.091768,1.682136
35.667220,17.445075,-6.076102,15.700987
35.699745,20.886863,-7.929430,11.224269
35.733914,21.540653,-11.554680,-2.654965
35.767253,25.033320,-13.423571,2.685043
35.800001,18.637879,-17.359180,-4.187159
35.833106,13.335581,-8.618835,-8.204175
35.867404,6.539247,-12.199492,-9.909506
35.899997,9.227433,-5.819465,-16.714968
35.933693,-17.305608,-2.008208,-17.300969
35.966916,-19.925108,-2.268288,-12.937680
36.000250,-8.605218,-6.577705,-14.859694
36.033317,-2.769292,-1.975287,-7.814953
36.067340,-8.760846,-6.532663,3.512719
36.100084,4.037067,-19.921517,4.194641
36.133591,10.885327,-15.510342,5.482319
36.167247,20.928913,-20.294128,6.450060
36.199939,44.843352,-37.868494,0.679529
36.233682,33.894127,-36.623465,-0.511929
36.267518,44.010440,-11.099167,-21.481245
36.300118,-16.182538,-15.028342,-9.666037
36.333368,-19.973443,-3.721919,-30.744592
36.367242,-3.204903,-3.139060,-18.734249
36.400103,-37.799808,4.450980,20.990865
36.433311,-6.561394,-14.991230,22.510788
36.467319,16.241497,-7.044442,17.625545
36.500201,10.220314,-16.018230,5.697356
36.533502,14.178520,-6.317925,-6.695025
36.566952,24.044928,-2.077643,-26.447146
36.600914,-49.070915,-8.577683,3.132177
36.633524,-26.280294,1.420261,-12.506409
36.667218,7.851316,-2.105626,-8.700690
36.700209,11.183117,-7.760633,-3.270596
36.735657,23.753124,-32.028678,-0.869725
36.766669,37.762697,-20.556452,2.500683
36.800412,32.933869,-31.893701,-8.446596
36.833590,30.390537,-23.627125,-21.455806
36.866689,11.069837,-3.049574,-7.241521
36.900288,-21.709600,-1.588011,-17.046127
36.933399,-4.376009,-3.642459,-13.223498
36.966667,-9.066268,3.567937,2.146927
37.001025,-3.328209,-8.257597,26.717252
37.033700,14.187199,-1.027448,19.228670
37.066952,-0.798944,-10.698872,12.946360
37.100647,18.767321,-5.549359,-4.428982
37.133599,19.293166,2.186882,-17.637067
37.166503,-15.283333,-12.785793,-6.694726
37.200284,-22.684075,-1.677049,-11.488837
37.233149,0.494121,-3.915258,-11.483001
37.267000,-0.507439,-4.634741,-1.088952
37.300210,23.227578,-20.339170,-11.921305
37.333648,38.966574,-21.266956,2.729936
37.367023,19.456277,-13.325555,6.976803
37.400273,31.703953,-21.311999,0.663966
37.433270,34.047661,-10.610583,-25.961704
37.466749,18.190896,-6.681258,-5.507609
37.500286,-34.303999,-0.060156,-12.863757
37.533461,-6.913504,-5.148615,-10.244556
37.566749,-12.973445,1.098978,13.041383
37.600531,-4.806681,-14.755842,16.011945
37.633210,5.447901,-5.322650,17.777133
37.666743,-3.761126,-8.660286,15.415019
37.700558,18.887484,-5.581832,-14.673987
37.733257,27.579794,-0.117320,-23.234462
37.766721,-6.882229,-7.094871,-0.253944
37.800423,-24.123790,-0.243768,-16.480178
37.833691,21.856250,-11.475070,-14.292547
37.866717,27.582936,-16.828696,-14.821535
37.903929,19.473037,-29.048539,-8.281839
37.933529,33.905500,-17.611927,7.885136
37.966843,10.455702,-17.787459,11.099167
38.000546,19.753767,-4.179677,0.412566
38.034101,13.143290,-3.765914,-12.476930
38.066973,17.149531,-13.667639,-6.628285
38.100055,-35.757481,-15.894625,-15.102565
38.133358,-28.174924,-9.541085,-2.505322
38.167020,-10.402429,-2.894544,19.062267
38.199786,6.910811,12.738356,28.859839
38.233145,18.015514,1.044508,11.733503
38.267396,-0.429026,-15.954931,14.370960
38.300082,13.175463,1.985313,-18.168150
38.333510,15.278695,-4.016566,-25.637728
38.370189,-32.545844,-14.641066,-5.204881
38.400031,-10.305760,-10.827565,-10.473360
38.433359,3.442985,-9.223991,3.276732
38.467506,13.103036,-14.106092,-0.703471
38.500059,48.345596,-12.377716,9.722302
38.533548,32.025237,-32.363579,-9.519835
38.567531,46.267055,-39.126692,-9.215761
38.599975,20.480134,-13.730189,-17.047773
38.633666,-20.861574,-2.967719,-20.683648
38.666945,-34.531457,3.264760,-8.504059
38.700078,-4.253601,-4.316900,-6.585487
38.733918,-23.549610,9.574754,34.998492
38.766830,3.856897,-11.599124,27.968566
38.799993,4.503504,-4.289066,20.969167
38.833450,-4.865042,-10.077255,13.191774
38.866822,15.468891,-12.381158,-16.185830
38.900045,20.487616,4.430179,-9.868204
38.934703,-37.869692,-0.856107,-3.830411
38.966915,-11.513379,-4.955725,-21.902640
39.000003,1.886998,-9.596602,-13.371944
39.033448,-0.821240,-5.713667,-4.810572
39.066824,15.585612,-8.806188,5.212213
39.100825,26.325636,-16.256611,-1.639039
39.133113,11.997174,-14.203510,3.810508
39.166818,26.763192,-46.240568,-1.276454
39.200753,36.469483,-17.278074,-12.441165
39.233427,33.326981,-2.065821,-11.411173
39.267123,-35.430811,-4.960514,-9.499035
39.300052,-11.267665,-0.627303,-22.361146
39.333442,-10.388812,3.660865,3.745862
39.367128,-15.800948,-3.436550,44.989553
39.400021,12.960276,-4.446191,15.679588
39.433131,8.930841,-8.659837,13.125781
39.467205,11.074925,-7.579266,-5.744643
39.500099,17.041488,3.543844,-22.199980
39.533305,5.576744,1.774167,-8.601327
39.567037,-30.532698,-4.869681,-2.871199
39.600029,-6.637563,-8.996085,-4.127302
39.633448,6.523684,-5.876778,-0.354953
39.666917,16.652566,-5.176449,-4.652250
39.699930,27.772085,-16.026161,-4.459360
39.733209,34.937288,-31.464076,-4.016716
39.766918,22.010682,-31.423672,-4.667064
39.800026,12.499825,-10.596067,-6.966029
39.833472,17.181105,-6.354139,-15.539223
39.868066,-0.434413,-0.842041,-20.995205
39.899994,-18.107844,-6.365661,-17.797784
39.933208,-9.987769,-6.806210,-7.248854
39.968081,-15.634246,1.977532,26.454030
39.999967,6.406963,-10.776537,17.587984
40.033073,8.485803,-0.403886,14.352854
40.066844,6.098249,-10.224953,7.035164
40.100008,29.831770,0.957416,-18.088241
40.133106,21.171634,-4.269912,-15.071439
40.166497,-44.737106,-15.672854,-2.921779
40.200011,-13.062482,-1.972144,-15.757402
40.233159,6.884623,-12.444607,-6.136408
40.267517,16.686984,-30.240894,0.509385
40.300003,39.192086,-32.690549,-4.380797
40.333111,32.037358,-18.025840,8.100173
40.367290,32.108438,-24.249340,4.389177
40.400000,27.143884,-2.452648,-3.355593
40.433105,14.287759,-2.615010,-19.137537
40.467086,-14.851165,-0.481551,-11.486144
40.500026,-39.319881,-9.153360,-0.175082
40.533098,-15.109299,-8.327181,-3.905232
40.566960,-7.838148,4.101564,17.143395
40.600025,3.384325,-2.672324,23.885708
40.633183,2.821817,-1.077878,19.399263
40.667317,2.815083,-13.907666,2.931655
40.700006,23.474040,-5.791481,-12.190214
40.733326,23.528061,-0.490530,-9.674566
40.766519,-25.660922,-3.652186,-7.849521
40.800006,-11.365681,5.223437,-14.219522
40.833372,4.130894,2.673671,-7.325621
40.866708,17.503885,-20.405911,4.145708
40.899957,38.902228,-38.017389,-11.631148
40.933297,26.923609,-23.396076,7.685063
40.966696,40.245273,-49.333688,-5.541727
41.000027,34.765947,-2.224293,-8.335561
41.033362,-11.941058,-6.993264,-6.793640
41.066838,-15.380152,-1.187566,-8.331521
41.100016,8.120973,0.810915,-17.371301
41.133117,10.123046,1.223630,-26.634200
41.166911,-4.228461,-1.677049,-1.328829
41.200037,2.507268,-9.742953,-5.268030
41.233720,-4.865940,-8.459166,5.566418
41.266554,-5.974046,-1.088503,10.939947
41.300016,8.081767,-1.875176,5.141432
41.333109,8.779402,-2.066419,-3.182756
41.366939,3.516310,-1.501368,10.016201
41.400265,3.276432,0.889328,7.613833
41.433106,2.087070,2.310487,3.107037
41.466976,5.097737,-8.457071,-0.787870
41.500268,24.398983,-16.187925,-9.798919
41.533383,18.801289,-25.341584,-17.713385
41.566915,9.192716,-32.240723,-7.432616
41.600490,3.064837,-34.897932,-8.385243
41.633391,7.056862,-15.526354,-5.603829
41.667395,1.807238,-4.151993,-1.473833
41.700077,1.487900,-1.659391,-1.250117
41.733250,3.178416,-1.912886,-2.438581
41.767203,5.561031,-2.325451,-2.821667
41.800079,5.153404,-1.025353,-1.896275
41.834791,3.811107,0.374706,-0.255590
41.866697,6.742462,-1.142823,-4.148701
41.900045,7.139764,-4.832270,-3.755739
41.934484,5.363652,-13.069067,-6.454100
41.966621,5.528110,-24.615965,-7.439948
42.000477,2.892000,-23.760756,-5.252019
42.034720,0.306169,-19.257252,-2.130616
42.066650,0.594980,-13.416837,-2.382316
42.100246,-2.193616,-7.083199,1.084612
42.133909,0.778892,-4.344584,2.593163
42.166642,0.992582,-4.135832,-0.229702
42.200245,-0.742379,-5.200990,0.440399
42.234161,-0.665013,-7.320982,1.135640
42.266672,2.158899,-10.173625,0.754200
42.300538,2.661699,-12.063317,0.147698
42.333828,1.879515,-14.084843,1.257899
42.366494,1.896425,-13.868908,0.880200
42.400537,1.470092,-5.244087,3.407669
42.433405,3.224806,-7.451620,3.371156
42.466728,3.407520,-11.043051,2.111612
42.500556,2.200649,-10.240516,2.179400
42.533146,2.320513,-8.205821,2.182692
42.566712,2.166381,-9.623388,0.989140
42.600552,1.356364,-10.087281,1.291119
42.633265,2.138996,-9.941828,1.791825
42.666857,0.557270,-11.448434,3.086236
42.700542,-0.108790,-8.892083,4.622022
42.733096,2.145132,-9.267388,1.837765
42.766840,2.575355,-8.381352,2.643742
42.800543,4.464298,-7.424684,2.574308
42.833129,4.987001,-9.942876,1.021762
42.866979,3.543096,-9.906064,3.677326
42.900549,0.568194,-11.101711,2.700756
42.933100,-3.223459,-10.965087,1.724186
42.966840,-5.023813,-9.031850,5.312774
43.000553,-3.737333,-12.909847,2.387553
43.033151,-4.548397,-13.643546,0.923447
43.066842,-4.478664,-8.576935,4.479562
43.100590,-2.906066,-7.838447,2.591217
43.133217,-3.953716,-10.354095,-0.075420
43.166415,-2.975051,-8.227519,1.396468
43.200598,-2.527320,-8.956130,0.610992
43.233106,-3.680019,-8.140576,0.550536
43.266839,-2.449505,-6.354438,0.601415
43.300548,-0.527641,-7.863737,-2.431698
43.333139,-0.099363,-9.356425,-2.845012
43.366839,0.618624,-10.513315,-3.934861
43.400550,6.823868,-10.259820,-8.856169
43.433171,8.050791,-9.537194,-12.966112
43.466833,9.212020,-4.931184,-9.153360
43.500585,7.482896,-4.161121,-8.466050
43.533795,7.084097,-0.998118,-17.469467
43.566679,10.026377,-6.076252,-17.504035
43.600553,5.106566,-6.804265,-15.819953
43.633194,7.574776,-6.144639,-15.914378
43.666841,6.372844,-5.809289,-9.250478
43.700553,0.149344,-10.550277,-2.880028
43.733623,-5.587518,-14.851913,5.525566
43.766838,-6.545382,-18.324377,8.725680
43.800551,-4.742784,-18.595081,9.985225
43.833538,0.157125,-21.974319,5.098335
43.866710,13.812942,-24.315183,-4.847683
43.900625,18.729760,-22.981864,-7.642415
43.933401,20.362065,-31.448812,-15.925302
43.966705,16.772730,-41.074295,-12.310078
44.000199,9.689381,-39.186250,-26.078725
44.033267,-0.200222,-28.987635,-29.451528
44.066667,-10.808111,-23.343103,-24.077700
44.100368,-23.846202,-22.539670,-13.556454
44.133835,-28.181358,-20.876388,-6.240859
44.166712,-12.518231,-17.147136,-2.741010
44.200539,-4.056970,-11.588200,-0.464342
44.233101,-12.519428,-20.178304,-2.579395
44.266711,28.622955,-16.795924,5.186625
44.300318,28.464183,-13.560494,4.527896
44.333315,19.363947,-9.645535,9.908608
44.366713,25.560212,-11.279337,4.761489
44.400272,25.266763,-14.812108,-6.323612
44.433556,12.084117,-16.313475,-1.522617
44.467018,10.357985,-11.143910,-11.352064
44.500320,10.587388,-7.903841,-12.817218
44.533954,12.190064,-2.674868,-19.531547
44.566429,7.634035,-3.863033,-18.161716
44.600181,-9.849648,-1.867993,-7.815402
44.633663,-9.783506,-5.488604,-12.171059
44.667327,-6.280215,-8.276153,-9.795777
44.700174,-5.256807,-7.549337,-2.329791
44.733847,-4.010431,-8.420858,1.750374
44.767619,17.827862,-22.279590,0.879452
44.800172,22.728519,-19.011239,-5.288980
44.833875,24.495503,-24.064531,5.609366
44.867837,26.991398,-19.782498,-3.787912
44.900044,17.456299,-11.167703,1.595942
44.933223,18.116673,-9.855484,-9.527168
44.967015,17.034754,-5.492345,-11.397555
45.000183,-3.288404,-7.210695,-15.159728
45.033089,-14.144102,-4.051283,-17.761720
45.067424,-10.848515,-2.837530,-15.971541
45.100159,-15.153743,-4.677090,-4.993286
45.133382,-3.338235,-2.686689,2.863717
45.167257,0.056864,-2.986125,-0.358096
45.200108,8.117980,-5.734617,3.475906
45.233501,4.226964,-13.183993,10.832803
45.267204,11.027338,-21.156669,4.802491
45.300239,23.383805,-35.733987,-5.172259
45.333385,34.648926,-30.730526,-5.941424
45.367205,18.443493,-12.206375,2.007011
45.400216,6.849158,-10.921242,-9.707488
45.433316,0.998118,-7.199023,-14.715289
45.471787,-1.743340,-6.865319,-23.279355
45.500085,-4.602119,-4.894671,-21.274139
45.533139,-12.217299,-3.390311,-1.210163
45.567212,-15.858711,-4.515925,1.156441
45.600139,-8.736455,-5.670570,-5.604128
45.633670,-2.020479,-9.665588,-4.712406
45.667226,-1.539527,-7.813606,5.202936
45.699859,2.934797,-8.703383,9.576999
45.733402,15.136234,-19.476628,-1.909893
45.767097,34.260453,-20.352039,-3.261618
45.800801,31.102538,-34.022970,-7.183011
45.833689,30.330231,-46.826271,-8.374468
45.867008,36.736745,-1.345290,-14.730702
45.900027,-12.712617,-10.885627,-17.648141
45.933502,-17.431009,-2.311535,-29.612693
45.966933,-0.773504,-8.678692,-23.958734
46.000639,-25.703421,-3.601307,5.728631
46.034129,-11.551089,-7.157572,44.760749
46.066989,10.298877,-6.772092,18.140915
46.100043,1.662533,-2.411795,25.916662
46.133536,12.635401,-13.578751,-10.230041
46.166440,19.491742,0.474218,-9.283399
46.200045,6.450359,-4.019110,-19.317408
46.234900,-5.856127,-5.807792,-30.096339
46.266876,7.239426,-30.209469,-29.385236
46.300004,11.258088,-49.170278,-31.733732
46.333134,6.907369,-18.762682,1.031040
46.366991,13.312237,-7.255588,4.642672
46.400171,3.274188,-9.143034,8.296654
46.433178,-1.998631,-4.830774,16.354178
46.466908,9.345052,-5.955789,4.488391
46.500069,13.791992,-3.516609,-3.280173
46.533504,13.268541,2.006263,0.345825
46.567209,8.345437,-2.840223,-2.269335
46.600077,6.207040,-2.676214,-2.304501
46.633615,5.665632,-1.748877,-0.733101
46.667204,3.536961,-1.747231,-2.430052
46.700076,3.193530,-0.903544,-1.971546
46.733695,0.860746,-0.257386,-0.985249
46.766919,-0.711403,-3.534117,-1.169460
46.800057,0.350314,-4.519666,-0.039805
46.833521,7.175080,-19.066307,-2.444268
46.867669,7.699279,-24.116607,-4.177283
46.900097,6.157957,-24.287350,-2.020928
46.933264,9.657208,-18.456512,-0.399846
46.966920,8.527104,-17.801974,-1.775364
47.000330,6.889561,-16.215160,-0.883642
47.033504,8.598933,-10.128732,-1.447945
47.066920,7.933470,-4.524006,-2.195711
47.100074,4.812966,-2.131065,-2.552609
47.133245,2.838727,-2.298216,-2.040681
47.166922,3.942942,-0.987793,-2.203343
47.200074,3.920196,-0.404635,-1.577985
47.233348,3.863182,-8.575888,-1.347684
47.266925,3.878147,-21.329208,-0.331309
47.300076,0.794155,-14.550682,-0.132584
47.333589,1.691115,-12.964915,0.200522
47.366921,4.408930,-8.704431,0.647954
47.400273,3.487579,-8.023406,-0.321134
47.433710,2.699858,-8.553740,-1.274060
47.466875,2.448907,-8.509745,1.007247
47.500162,2.179250,-9.787397,1.203129
47.533629,-0.180170,-12.402856,3.827118
47.566882,0.582410,-10.302917,3.649642
47.600188,1.249818,-10.610882,1.064111
47.633759,1.040018,-11.184015,1.803048
47.666878,1.238894,-11.211699,1.362050
47.700184,-0.196780,-13.381671,1.407990
47.733590,-1.261041,-14.805673,2.762558
47.766881,-0.465390,-11.980714,2.158001
47.800090,-0.092479,-2.967270,5.527062
47.833779,-0.933323,-8.116185,7.358393
47.866889,-0.386677,-13.524580,7.146349
47.900102,0.662320,-12.328484,4.380199
47.933621,0.140365,-11.888833,2.808200
47.966466,-0.553679,-10.775040,1.350378
48.000019,2.512804,-8.610006,-2.453396
48.033995,2.725896,-7.817348,-3.203855
48.067082,3.621359,-5.852985,-2.637906
48.100273,6.002328,-4.921308,-5.416027
48.133871,5.096539,-5.117938,-5.120033
48.166877,6.305206,-4.127751,-3.528132
48.200047,6.160650,-3.981101,-7.583755
48.234000,3.357688,-2.556799,-8.358456
48.266996,5.299306,-0.439501,-8.978726
48.300224,4.203321,0.258882,-12.889795
48.333795,6.320768,0.232844,-15.545957
48.366990,5.212213,-1.592201,-19.996488
48.400048,2.505173,-5.785496,-17.517353
48.433962,-0.143657,-7.153232,-9.392788
48.466879,-2.820919,-6.941787,1.080721
48.500050,-2.728889,-9.276366,5.038777
48.533549,-2.462524,-13.068618,6.809951
48.567021,-2.248086,-15.575436,7.220272
48.604625,4.312560,-22.714004,0.636581
48.633140,13.966775,-26.424550,-5.506860
48.666815,17.050617,-31.022180,-10.534265
48.699999,14.580161,-38.826958,-6.872652
48.733731,10.043735,-42.648389,-9.408351
48.766719,7.581211,-35.340726,-22.353963
48.800017,-0.342233,-20.523979,-20.350693
48.834273,-5.557440,-18.789318,-18.243421
48.866688,-18.090485,-17.780874,-16.267535
48.900078,-23.754022,-15.331518,-4.102162
48.933918,-11.823888,-14.820189,-1.354418
48.966839,-6.096603,-16.028106,6.294282
49.000062,-6.315681,-16.673666,7.010772
49.033687,7.416454,-15.227367,4.748620
49.066478,18.763879,-10.843427,9.684892
49.100047,22.635441,-13.636513,4.958569
49.133907,23.699253,-10.985588,-1.474731
49.166635,27.895540,-15.173346,-1.294561
49.200048,20.520837,-17.563892,-14.101304
49.233968,16.899028,-5.147717,-10.628390
49.266807,11.735299,-3.961797,-21.400737
49.300171,-6.176962,1.864701,-19.721444
49.333911,-5.937383,1.502266,-20.645190
49.366838,1.565565,-2.284150,-20.339020
49.400176,-11.761786,-9.122384,-1.587562
49.433652,-1.095536,-7.592883,6.093610
49.467630,2.629825,-25.627851,-6.542240
49.500067,23.417774,-21.029623,12.430989
49.534139,12.567314,-20.945523,9.463570
49.567105,26.794617,-25.579816,-2.454144
49.600000,20.849153,-4.647012,-7.987342
49.633803,1.560327,-0.243170,-15.230061
49.666693,8.019964,-1.400658,-14.852212
49.700043,-18.664965,-4.950039,-7.769761
49.733579,-12.799560,-4.902303,-11.306422
49.767027,-10.462287,-6.795436,-8.680638
49.800178,-4.626062,-0.691201,7.301678
49.833764,2.879430,-11.458160,2.129120
49.866768,17.592474,-11.834662,1.454978
49.900118,19.818413,-18.480904,2.170721
49.933583,21.273092,-22.300091,-3.939051
49.966743,17.743463,-15.615391,-6.233227
50.000172,13.590872,2.061481,-13.307149
50.033760,-2.490807,-1.884005,-17.662058
50.067289,-7.632688,1.872632,-21.257978
50.100048,0.134529,1.377613,-16.341159
50.133941,-11.982360,-5.859719,0.145154
50.166450,-6.327053,-4.401298,2.933900
50.200067,5.797018,-14.984646,4.530889
50.234784,12.429194,-21.118361,13.299367
50.266956,11.182368,-21.446827,6.315082
50.300381,34.875336,-28.672486,-8.358456
50.333436,21.002687,-11.723178,-10.587238
50.366695,10.179162,-0.298837,-10.057652
50.400043,-0.787870,1.924558,-12.931844
50.433281,-4.971737,1.503612,-11.343235
50.466766,-10.561201,-1.755611,-9.929258
50.500173,-9.898432,-3.738679,2.497241
50.533156,-6.893153,-3.913163,1.144469
50.566709,6.383020,-7.204560,5.640791
50.600171,19.595594,-15.593394,5.168368
50.633232,23.578940,-18.686513,-2.110265
50.666717,23.054591,-17.367261,-7.764524
50.700179,17.175569,-12.862260,-7.774550
50.733185,8.815616,-0.796849,-8.334663
50.766837,-8.932786,-2.278464,-12.887400
50.800173,-7.753749,3.008422,-16.181341
50.833270,-3.219568,-0.359592,-14.046684
50.866709,-11.076421,-5.493542,0.832913
50.900179,-5.385350,-7.625356,-1.747081
50.933469,10.561500,-18.456213,-1.751421
50.966715,17.877244,-17.639761,5.729080
51.000176,10.592626,-19.085761,4.865042
51.033670,24.366810,-21.770206,-7.682519
51.066753,18.589245,-11.951384,-6.550021
51.100177,3.779682,1.404848,-5.269527
51.133199,-2.317071,0.129441,-12.800757
51.167213,-7.332205,-1.164821,-13.516350
51.200477,-10.730896,-3.349159,-14.065090
51.233414,-12.920920,-8.238592,-7.583755
51.267143,-0.699132,-2.110115,6.098399
51.300094,8.099125,-14.426179,-0.984501
51.333317,19.291819,-11.493925,1.423104
51.366839,15.782243,-18.944348,5.911794
51.400241,22.067995,-23.438425,-6.107078
51.433362,19.368436,-12.039224,-10.419189
51.467044,4.085701,-1.706827,-9.513251
51.500028,-9.705842,-2.796677,-17.232134
51.533655,-1.670015,3.300525,-21.322773
51.566724,-2.354332,-2.379024,-18.517566
51.600203,-11.097820,-8.214500,-8.798257
51.633819,-2.723053,-5.738508,-0.183013
51.666835,10.631982,-20.074003,-5.023514
51.700280,11.964552,-19.260693,5.317562
51.733729,13.784360,-15.469489,8.505406
51.766737,21.785020,-16.928957,-1.663281
51.800079,19.893384,-6.677368,-5.322800
51.833451,11.433320,-0.987793,-6.695474
51.866822,-2.970861,-2.907114,-7.917309
51.900743,-10.476652,0.706165,-9.519536
51.933344,-12.837868,-1.761896,-10.846869
51.966839,-5.066312,-4.869980,-8.437468
52.000546,-0.803134,-3.562999,4.194641
52.033740,6.350697,-11.471479,-2.952455
52.066840,18.782883,-14.378443,7.363480
52.100506,16.513099,-19.662036,7.353005
52.133714,23.067161,-21.657225,-1.966757
52.166728,18.934921,-7.913867,-10.657271
52.200470,9.308839,0.015114,-13.659707
52.233753,-6.690387,-2.183590,-10.022636
52.266840,-10.613725,2.510260,-17.763815
52.301009,-5.327588,0.068387,-17.912261
52.333126,-8.120225,-3.320278,-8.533389
52.366710,-0.968639,-8.419361,9.070757
52.403157,6.381224,-23.181039,-0.973876
52.433467,21.800583,-31.435643,1.210312
52.466713,16.524173,-13.189829,8.232457
52.501025,18.625309,-11.375408,0.666360
52.533644,22.183669,-7.614581,-5.384901
52.566838,7.907732,-3.343173,-12.067806
52.600954,-2.824211,-3.114519,-7.133330
52.633674,-14.685809,1.264782,-9.690428
52.666842,-7.947836,-0.313951,-17.019641
52.700693,-7.038905,-5.864058,-11.974129
52.733350,-4.720487,-7.070629,9.324551
52.766915,10.635124,-19.977483,2.023472
52.800549,31.804214,-16.516391,4.490037
52.833488,19.811828,-18.791563,7.266362
52.866710,25.807273,-15.893577,-2.416434
52.900748,18.891973,-0.399696,-9.237309
52.933554,2.495745,-0.598871,-16.492897
52.966843,-12.056433,1.310723,-13.403369
53.000623,-10.094315,0.567147,-14.356445
53.033373,-9.538241,-1.249668,-11.396956
53.066841,-7.854459,-5.767987,1.583372
53.100661,1.830582,-8.087453,3.045384
53.133392,9.698060,-20.450804,-3.877548
53.166718,18.794406,-21.661415,7.243018
53.200552,15.530095,-16.109213,6.022231
53.234332,21.664857,-15.813967,-4.074628
53.266716,17.187390,-2.949911,-8.569303
53.300545,8.948199,1.313117,-9.632068
53.333141,-3.696779,-1.621082,-9.966071
53.366848,-14.886929,-1.503163,-9.960534
53.400542,-8.037323,-2.450403,-12.999632
53.433480,-2.284000,-6.358927,-12.061521
53.466713,-1.423853,-8.553740,6.995060
53.500554,9.653167,-18.115476,2.089165
53.533639,27.076694,-12.511946,1.943862
53.567509,13.867412,-20.186983,3.982448
53.600429,15.048095,-17.250390,7.823184
53.634331,19.303940,-3.620910,-6.203748
53.666688,8.837613,-5.123176,-13.250733
53.700244,-1.103617,-8.051239,-13.126230
53.735267,-9.256613,-4.394564,-21.002088
53.766741,-10.045980,-4.463699,-18.811914
53.800646,-13.664346,-12.635252,-11.753855
53.833121,-5.223736,-11.519215,0.174783
53.866919,-0.768865,-12.724140,-0.470178
53.900536,7.958910,-19.537832,7.006133
53.933264,23.260649,-18.513227,10.457947
53.967002,29.129795,-24.968075,-1.249070
54.000367,34.793781,-33.860757,0.410022
54.033101,42.015699,-35.985088,-25.018355
54.066662,-0.914767,-24.332991,-4.102910
54.100257,-17.522890,-4.419704,-16.792333
54.133096,-17.576163,1.807088,-31.604740
54.166769,-6.460385,-0.264120,-12.105067
54.200981,-32.157671,2.217409,24.726701
54.233596,-3.578262,-28.621159,31.664448
54.266711,-9.468657,-3.164050,16.002667
54.300672,6.409357,-14.974919,0.000599
54.333145,14.572230,-12.417671,-3.016054
54.367026,30.335319,4.186561,-18.005638
54.400804,6.957798,-3.507331,-14.062995
54.433490,-27.847804,-6.149278,2.809696
54.466711,-10.697226,-6.340222,-15.490140
54.500596,8.255951,-7.915813,-13.481333
54.533251,27.476091,-33.178385,-9.882570
54.566662,24.375190,-21.723068,14.308859
54.600608,31.476945,-25.036312,-1.959425
54.633958,36.315949,-18.597176,-13.282308
54.666710,37.716457,4.809225,-5.879920
54.700712,-28.342075,-11.513379,-0.792210
54.733144,-29.140420,-7.389069,-23.561282
54.766841,-2.144383,2.227136,-8.608659
54.804266,-13.184292,9.246138,44.040817
54.833149,-2.494997,-7.940803,21.120456
54.866710,11.513977,-2.359720,22.806633
54.900643,2.789195,-14.852661,0.012720
54.933225,10.159559,-9.498287,-6.970668
54.966713,25.092279,4.002949,-23.334274
55.000551,7.980907,-0.086494,-6.202700
55.033239,-26.670862,-9.617851,0.161165
55.066841,-3.661314,-5.989010,-15.308922
55.100556,15.858561,-12.764244,-17.226297
55.133778,27.873393,-27.707738,-20.848854
55.166459,24.408111,-7.099361,13.954953
55.201895,15.470088,-7.028879,10.383425
55.234130,31.110320,-27.887011,1.583073
55.266714,36.435214,-6.660757,-18.198827
55.300671,-6.674225,-7.142308,-3.440291
55.333738,-28.869716,-7.069881,-23.407299
55.366712,-6.013402,-4.006091,-15.933382
55.400902,-8.747378,-5.436229,-0.741032
55.433624,-6.988176,-1.462311,32.495714
55.466777,10.894455,-4.864294,2.664991
55.501197,2.790093,1.870238,16.377972
55.533463,8.872330,-9.622041,-9.140490
55.567211,14.841288,-1.990102,-12.895780
55.600249,18.258535,0.951430,-14.152931
55.633334,-20.623342,0.407927,-13.073406
55.666792,-4.756102,-11.427484,-14.842336
55.700146,23.661393,-30.006853,-12.146069
55.733518,32.695936,-33.801199,-11.471479
55.767181,14.440694,-14.391611,8.812473
55.800014,25.436308,-31.284504,-5.341954
55.833149,10.520498,-6.216767,9.233568
55.867922,6.624544,-2.009555,-0.627303
55.900231,2.493201,-6.707296,-2.140792
55.933256,10.343769,-3.625699,-6.555857
55.967430,6.636066,-2.072854,-4.127601
56.000158,6.364015,0.802834,-3.199665
56.033248,5.009747,1.052140,-3.297382
56.067388,4.112787,0.109239,-2.851596
56.100320,3.871113,-0.311407,-1.885501
56.133217,2.725597,-0.621467,-1.043011
56.167269,1.324340,-1.760250,-1.785839
56.200394,1.037774,-1.757706,-1.158835
56.233210,0.852217,-2.522232,-1.261789
56.267278,3.007075,-5.406300,-2.425563
56.300383,5.480673,-9.085272,-3.860189
56.333554,9.544676,-18.472225,-11.760589
56.367123,14.789811,-28.331301,-16.691922
56.400407,8.490591,-22.200130,-9.238806
56.433500,3.761126,-9.407902,0.988990
56.467209,6.040338,-12.149960,-2.107721
56.499785,8.068448,-8.537729,-3.032963
56.533139,4.213945,-5.854331,-1.461563
56.567217,2.474496,-5.242741,-0.821390
56.600281,0.195134,-5.846849,-1.540873
56.633174,2.873594,-6.724954,-2.064175
56.667202,2.799969,-7.886483,-2.530911
56.699774,2.618901,-6.922483,-1.643828
56.733092,2.612167,-11.325876,-0.081256
56.766926,2.071358,-13.662102,-1.285134
56.800107,1.863055,-12.223883,0.177626
56.833353,0.449078,-13.386908,1.813523
56.867208,0.979263,-13.025221,0.613386
56.900107,0.542456,-12.189316,1.095237
56.933592,0.006584,-12.335816,1.237996
56.967212,1.581427,-12.563573,-0.073475
56.999980,-1.555688,-11.068789,3.100452
57.033710,-0.485891,-9.001921,3.545939
57.067212,-1.082517,-6.879386,5.148466
57.099956,1.615695,-10.722216,6.791695
57.133172,1.290221,-12.547112,6.445122
57.167237,0.417953,-14.162508,3.758283
57.199858,3.058702,-13.594014,0.427979
57.233289,6.888514,-15.484304,-3.389413
57.267211,2.128970,-13.084929,-12.671615
57.300073,0.349267,-6.446319,-11.365083
57.333128,6.699215,1.384945,-10.085336
57.367205,3.693487,2.650775,-11.280983
57.399925,2.128671,1.350528,-7.644211
57.433126,3.982597,-1.106161,-10.327458
57.467205,3.420389,-1.391679,-18.022099
57.499800,4.563661,-5.135596,-22.323585
57.533100,5.316365,-10.626894,-16.367646
57.567221,-2.524177,-9.538391,-4.084953
57.600077,-3.785667,-16.203039,-5.624031
57.633372,-9.564728,-9.917586,1.480268
57.667209,9.850995,-7.003739,-7.335946
57.699958,5.518982,-0.932575,1.243533
57.733250,-9.180744,-6.411452,1.313715
57.767220,7.221020,-6.091366,-6.819079
57.800077,8.526206,3.183654,-13.814887
57.833375,13.619304,0.567296,-14.379191
57.867247,17.761720,-1.261340,-10.310998
57.899783,13.659408,-3.099405,-7.524047
57.933100,6.126083,-7.132881,-3.468125
57.967223,0.926589,-9.792485,-1.316858
58.000144,-4.439457,-10.454804,0.958313
58.033314,-4.588352,-10.971372,0.705866
58.066933,-1.474282,-10.595319,-1.712065
58.100099,-1.459617,-11.890479,-4.770916
58.133202,-0.387276,-13.109470,-9.107419
58.166983,6.840478,-13.990718,-11.739639
58.200097,4.052181,-11.565454,-9.920130
58.233302,1.681987,-5.703342,-6.740068
58.267207,1.652806,-9.137198,-17.314736
58.300159,4.994184,-6.318224,-13.348749
58.333275,6.620952,-2.946470,-9.040080
58.367326,9.468358,-3.220017,-9.160842
58.399977,11.192245,-5.111653,-7.912221
58.433716,7.613085,-8.413375,-8.755609
58.467208,3.525887,-10.940246,-9.795178
58.500367,4.599276,-11.398303,-4.929388
58.533647,5.550107,-10.566288,-6.728845
58.567296,4.860104,-7.900549,-1.046303
58.600282,2.141690,-12.368139,-4.258389
58.633709,2.665291,-16.462520,0.057463
58.667209,1.775514,-17.448966,0.123007
58.699936,-1.148061,-18.487039,-1.315362
58.733077,-1.936978,-16.505617,1.643229
58.766686,8.063211,-13.714926,4.678587
58.799964,5.038179,-15.388383,-0.710056
58.833075,-2.286395,-15.001107,5.049252
58.866779,4.200926,-14.263068,3.800183
58.899826,3.998011,-16.231022,2.635362
58.933083,3.263114,-18.930282,1.142225
58.966801,6.029414,-20.852595,-1.462760
59.000108,1.430138,-16.618298,1.539676
59.033091,5.306788,-19.182280,-0.750010
59.066820,5.886056,-19.323244,-6.594016
59.100009,5.746588,-16.740257,-2.354781
59.133105,9.449204,-15.897767,-3.707254
59.166915,3.661164,-15.358155,-8.900613
59.200070,2.204091,-8.451534,-5.293320
59.233368,8.917971,-3.892512,-7.805675
59.267203,5.700498,1.568557,-7.753450
59.300072,-0.572684,3.532621,-6.144788
59.333864,0.083052,6.151223,-4.420752
59.367241,2.282504,4.461305,-7.078111
59.400258,3.215079,1.552695,-5.422163
59.433821,3.482341,-0.788768,-7.615330
59.467379,4.392619,-0.455214,-6.267196
59.500286,7.766020,-0.543952,-12.934538
59.533701,5.245434,-3.354845,-14.407773
59.567588,0.289260,-5.556991,-9.111909
59.600250,-3.580956,-7.984648,3.760228
59.634245,-7.037708,-11.554530,-1.889541
59.666846,-4.933429,-11.432422,4.620525
59.700082,0.400744,-10.351850,4.072383
59.733978,2.826755,-13.081637,1.740796
59.766687,5.748534,-18.675889,1.165719
59.800204,10.596965,-21.071972,2.634763
59.834053,17.258022,-24.614170,-3.415301
59.866690,11.962756,-29.764581,-5.187522
59.900127,11.460255,-32.588792,-5.736413
59.933704,9.837677,-29.009632,-12.034136
59.967016,1.091945,-25.467733,-22.127703
60.001612,-9.108617,-23.751927,-19.819460
60.033645,-21.237477,-28.023934,-18.972331
60.066691,-13.262705,-23.269778,-12.015281
60.099959,-3.567637,-14.601560,-4.686368
60.133078,1.860062,-15.344687,3.854653
60.166804,10.409912,-12.333272,8.043308
60.200057,16.424511,-10.725509,7.176576
