time_tick,acc_X_value,acc_Y_value,acc_Z_value
0.025015,-4.429731,4.936122,-6.803666
0.058119,-4.602269,5.179442,-6.898689
0.091291,-5.114048,5.289429,-6.772092
0.124965,-4.910533,5.385500,-6.708194
0.158028,-4.774508,5.184380,-6.813094
0.192420,-4.676941,5.203235,-6.783614
0.224644,-4.856213,5.078283,-6.666444
0.258262,-4.620825,5.101328,-6.735279
0.292159,-4.763584,5.191862,-6.844070
0.324637,-4.789472,5.241244,-6.720614
0.358223,-4.776304,5.146969,-6.753835
0.392212,-4.742185,5.063468,-6.857687
0.425024,-4.467141,5.298857,-7.049829
0.457999,-4.709114,4.996578,-6.743659
0.492151,-4.950189,5.222539,-6.762365
0.524630,-5.146820,5.105967,-6.448115
0.558976,-5.821859,5.154152,-6.170228
0.592115,-5.131257,5.211166,-6.261959
0.624682,-4.896317,5.359312,-6.222752
0.659027,-5.118088,5.852685,-5.953545
0.692094,-4.779446,6.611225,-5.525117
0.724683,-4.852023,5.729978,-3.837444
0.758844,-4.953481,6.551069,-4.550492
0.791940,-4.868184,7.066290,-4.638333
0.824686,-5.060027,7.089335,-4.053229
0.858854,-5.044763,6.626339,-4.449633
0.891325,-6.101542,4.717195,-4.865191
0.924625,-7.016608,5.127815,-6.963186
0.958333,-8.192502,4.547200,-8.575588
0.991601,-8.431183,3.156718,-8.791373
1.024989,-10.611331,1.157787,-9.896636
1.058504,-10.183651,0.483496,-10.097457
1.091333,-11.060260,0.273996,-9.554253
1.124999,-11.479709,2.353734,-9.739062
1.158134,-11.162466,2.088118,-8.861406
1.191336,-10.257874,1.630809,-8.831179
1.224989,-8.384644,5.283743,-8.382100
1.258022,-5.371583,3.933215,2.632070
1.291797,7.207702,3.025182,1.763692
1.325227,-0.940506,5.466307,3.540552
1.358545,1.891636,10.886225,1.589208
1.391394,2.408054,11.059512,2.028111
1.424864,-3.394950,11.693698,-2.319316
1.458490,-2.689682,12.698401,-4.229808
1.491293,-2.736221,11.597179,-8.003503
1.525488,-7.655883,15.003800,-11.950635
1.558639,-6.936699,16.833934,-15.014575
1.591376,-6.377483,14.994373,-18.030179
1.625431,-9.860572,11.294900,-22.891630
1.657956,-7.328464,6.776730,-25.459503
1.691290,-8.025501,2.694770,-24.237818
1.725129,-2.788447,3.965089,-22.097774
1.757998,1.304438,7.567145,-17.401529
1.791743,5.810486,11.529390,-11.880902
1.825488,2.327696,21.131230,-4.941210
1.857954,4.466094,19.536186,6.715377
1.891320,6.376286,14.229398,6.774935
1.925396,-3.684060,10.516457,8.465900
1.957986,-9.880624,7.985546,8.663728
1.991342,-17.095809,7.485290,4.224720
2.025153,-25.402190,10.129032,0.013468
2.058643,-19.242287,15.525605,-6.153318
2.091295,-23.357019,19.223133,-5.603081
2.125067,-11.708663,11.417607,-3.605796
2.158156,-9.537044,5.791631,-13.029860
2.191350,-13.147180,6.219311,-14.595874
2.225133,11.456514,-6.246994,-21.852060
2.258518,3.960899,-8.437169,-14.126743
2.291315,8.570351,-2.048762,-9.390095
2.325087,7.248704,2.038287,-1.368335
2.358511,-1.077429,11.728416,-1.360554
2.391374,-10.257874,18.175632,0.284771
2.424592,-16.537790,21.337288,4.465495
2.458018,-23.420169,27.152264,4.180126
2.491288,-12.922267,17.023831,2.569968
2.525137,-19.992747,-0.219377,-5.515240
2.558584,-1.018320,0.437706,-13.428958
2.592018,7.266213,-4.379151,-21.102648
2.624669,-6.594914,-4.450531,-7.238379
2.658477,1.469643,2.436337,-0.581662
2.691311,4.314206,7.791160,-4.462053
2.724822,-14.976565,26.340900,8.248469
2.759687,-13.552264,20.724950,8.428938
2.791386,-15.015024,22.577679,1.323293
2.824695,-14.917905,7.190493,-1.752169
2.858469,-13.164539,4.285175,-10.818437
2.891277,-5.174653,2.319166,-14.111779
2.927086,9.422867,-3.187544,-21.121354
2.958364,-1.012484,-3.091025,-13.040934
2.992412,5.820512,4.407883,-2.459083
3.025345,6.134762,11.622169,-3.436550
3.058364,-8.798107,22.767725,5.975692
3.092265,-12.589311,17.045828,5.483217
3.124619,-19.500421,27.310287,3.129483
3.157991,-14.959656,21.373203,5.961027
3.192455,-11.291009,5.398369,-6.482532
3.224607,-4.827332,1.284834,-12.202185
3.258474,11.241627,0.625059,-19.427695
3.292224,2.681003,-3.343323,-8.063061
3.325143,2.712129,-1.171704,-3.937705
3.358473,0.122258,3.886976,-1.403950
3.392625,-11.686366,11.415213,7.305269
3.424615,-13.659707,20.141492,5.658898
3.457918,-20.160197,20.466965,-1.291419
3.491572,-20.240555,14.050874,-6.599853
3.524976,-6.722709,8.596239,-8.215248
3.557909,2.738017,-1.310423,-10.154770
3.591668,2.246590,-2.973256,-18.577573
3.624882,-0.955021,-7.631341,-10.491766
3.658297,2.162640,-0.171940,-3.395997
3.691668,0.805378,7.494717,-0.466886
3.724887,-8.191305,18.855909,3.410213
3.758364,-14.498307,22.821447,7.318139
3.791878,-24.587384,22.130845,-0.006584
3.825218,-15.087451,18.319888,-0.394459
3.858502,-6.652976,5.010046,-2.710483
3.891827,7.153531,-3.662661,-11.919510
3.924943,7.435608,-0.062102,-14.577019
3.958507,0.881247,-1.482363,-5.952347
3.991947,1.259245,-2.669032,-0.777844
4.025031,-1.345589,3.700072,0.968190
4.058670,-6.020435,5.756315,3.109580
4.091816,-19.960124,21.349410,4.880006
4.125154,-22.026544,21.931221,-1.485206
4.158072,-15.715053,20.416386,-4.682029
4.191945,-15.985458,1.130852,-5.577193
4.224790,-2.745649,1.391979,-12.324743
4.259512,11.720784,-2.161143,-21.427074
4.292154,2.552310,-2.013595,-7.478107
4.324584,6.596261,4.677240,-1.722091
4.358048,2.858928,3.818289,0.075270
4.392256,-10.231088,19.202782,7.463741
4.424955,-11.917714,23.278906,8.616890
4.458600,-27.271529,24.735530,1.741245
4.491870,-12.794771,12.284788,-2.480182
4.524607,-9.207082,6.763712,-3.623005
4.558107,12.761850,-2.056693,-6.508121
4.591550,7.749859,1.204177,-16.868352
4.625027,-6.892255,-0.995275,-2.835584
4.658040,1.327483,-3.079951,-0.496366
4.691874,-4.821346,9.140790,1.862456
4.724586,-10.854950,15.787032,6.144639
4.758433,-16.110111,26.199038,-0.677134
4.791927,-19.033984,20.825061,-4.301337
4.824585,-8.521867,5.566269,-3.320577
4.858035,-1.798708,-3.658770,-14.752999
4.892187,4.854268,-4.146756,-21.867922
4.925032,-0.700928,-5.238551,-10.169136
4.958246,7.232244,5.148166,0.972230
4.992019,2.484073,5.538285,-1.097481
5.028386,-9.107719,23.887055,9.596153
5.058303,-13.517547,19.613102,7.823034
5.091960,-23.338464,29.028487,0.660374
5.124986,-12.088157,13.280961,0.403886
5.158063,-10.125889,-0.936615,-3.821881
5.192044,13.147031,2.096198,-10.291694
5.224607,15.396912,2.649877,-18.452771
5.258470,4.771814,1.762644,-8.403349
5.291869,1.326585,-2.338171,1.196994
5.325029,-5.271771,8.998479,-0.152636
5.358066,-14.422138,13.808752,6.082836
5.392174,-21.493366,22.889535,1.113643
5.424585,-17.722065,21.045634,-3.782525
5.458120,-13.813989,13.102138,-11.903049
5.491876,-2.493351,-6.037794,-7.261424
5.525033,17.447021,-7.133180,-20.124432
5.558163,2.471204,-3.637970,-15.639783
5.591922,-2.346401,2.750587,3.695433
5.624649,3.937555,3.948329,1.245029
5.658474,-0.205909,12.262940,0.220873
5.691875,-14.354500,29.199230,6.001281
5.724692,-25.609146,27.821766,1.878019
5.757970,-15.769972,21.737733,-3.956859
5.791653,-11.074626,0.687310,-6.061587
5.824676,6.400678,-3.629141,-8.217493
5.858070,14.172235,-6.031359,-16.144080
5.891867,2.631471,2.188678,-4.870130
5.924619,2.729338,2.386057,-3.193829
5.957936,-0.847428,3.050172,2.674119
5.992087,-11.729164,11.799646,3.822779
6.025177,-23.177597,24.691236,0.807324
6.058639,-22.237092,20.031504,-3.036255
6.091746,-12.439818,9.406556,-9.764202
6.124579,-1.757556,-3.902089,-7.864635
6.157979,13.275724,-5.079031,-18.823137
6.192297,-3.810059,-7.498009,-9.426009
6.224658,0.048335,3.838491,0.095622
6.258001,5.824702,2.180597,-0.412266
6.291872,0.174184,14.100705,6.451706
6.325207,-12.030395,27.764004,8.835668
6.359451,-26.207119,36.188453,1.059622
6.391245,-15.968698,18.439004,-2.276668
6.424685,-10.169884,-1.594745,-8.781497
6.459670,11.030481,-6.154066,-12.269076
6.491282,9.127472,-0.298388,-15.951190
6.525026,5.285987,-0.087990,-8.775661
6.558194,3.191734,-1.403950,-0.603959
6.591216,-2.582688,10.105388,5.707831
6.624574,-8.434774,13.772838,8.770274
6.658625,-24.774587,28.689546,-0.021998
6.691600,-23.340559,24.708295,-5.623133
6.724725,-14.246607,12.749429,-9.097094
6.758483,-1.288725,-5.527661,-11.537621
6.791708,13.014447,-3.397194,-18.899156
6.824904,1.233058,-1.516482,-16.155901
6.858648,1.761746,1.479071,-1.409188
6.891844,4.000555,0.567745,-0.236735
6.925122,0.792060,8.598035,1.790328
6.959311,-9.777969,26.207568,9.086769
6.991239,-16.344901,28.336987,4.017015
7.024782,-17.767706,29.693051,-0.443392
7.058328,-17.097605,4.579224,-3.516460
7.091809,0.255291,-1.633053,-8.818309
7.124884,20.097048,-5.938131,-16.492748
7.158912,-2.863119,1.247274,-8.471736
7.192077,-0.432468,-0.115824,-1.512142
7.224833,5.767987,1.104365,-2.181196
7.258682,-6.820277,13.594014,6.015497
7.291387,-14.082000,18.963951,6.781669
7.324692,-30.919525,27.192368,-3.689746
7.358180,-14.579114,14.650194,-6.473255
7.391896,-7.458204,4.802341,-9.729635
7.425004,0.830967,-6.986530,-11.701630
7.458188,9.028258,-2.772734,-21.298681
7.491982,-5.450595,-4.017464,-7.467782
7.524677,4.491084,4.660031,-0.187652
7.558836,1.112146,7.121508,0.279383
7.591450,-7.974323,21.679223,6.598356
7.624652,-14.678028,29.740937,6.398433
7.658568,-18.118918,23.986118,-2.735024
7.691384,-13.879832,8.022807,-3.910170
7.724636,-9.739212,-0.266364,-8.371176
7.758955,13.315978,-4.935823,-9.653167
7.791837,11.146753,-0.597225,-15.186664
7.824814,2.095899,0.876758,-5.007352
7.858841,0.219825,0.548890,1.950745
7.891681,-3.709798,9.381416,1.517379
7.924858,-8.630208,17.123942,5.132903
7.958668,-29.517819,28.210239,-1.819359
7.991841,-16.319760,16.009251,-5.430991
8.025216,-10.192181,5.408096,-8.892981
8.058559,6.285303,-0.642716,-14.710650
8.091680,9.219203,-4.031381,-20.267042
8.124823,-4.320342,-5.820362,-6.242206
8.158562,3.749753,1.531745,-0.769614
8.191515,1.123519,8.433128,-3.345867
8.224858,-9.186431,18.305522,7.088736
8.258222,-15.905698,25.085246,5.028302
8.291279,-24.084284,31.282858,-1.657296
8.325033,-14.392060,12.538882,-3.848966
8.358295,-6.016694,-6.197762,-6.792443
8.391255,14.048031,-5.005407,-10.077405
8.424565,13.842422,1.307730,-14.627149
8.458292,3.495959,2.211872,-2.445016
8.491578,2.837679,0.997370,0.586002
8.524570,-2.921779,9.345352,3.743169
8.558529,-12.986314,22.467542,7.609793
8.591345,-28.456252,30.363601,0.836354
8.624593,-18.689057,22.539221,-2.368549
8.658402,-11.622768,3.411261,-7.871818
8.691313,1.978579,-8.128904,-12.120480
8.724640,11.354757,-3.603402,-19.320551
8.758429,-6.906172,-3.927080,-10.310399
8.791394,2.877933,1.877720,-0.824682
8.824642,6.188933,3.262516,-3.445230
8.858452,-5.370087,18.014467,7.460000
8.891735,-11.406983,24.584690,6.568428
8.924731,-22.894922,32.709255,-0.031126
8.958989,-13.634268,17.229739,-2.230428
8.991675,-8.802297,3.562550,-5.070053
9.025011,9.449204,-4.322287,-8.572446
9.058656,8.627514,-2.395784,-16.840368
9.091627,-7.125847,0.334452,-7.869124
9.124727,1.557334,-0.785925,0.653790
9.158916,1.690516,10.412904,0.162363
9.191672,-11.832717,15.096280,8.070094
9.224784,-16.432292,23.796221,0.652144
9.258183,-24.194421,22.626014,-6.920238
9.291518,-10.489821,9.965322,-7.533325
9.325139,-3.789708,-6.613320,-13.010556
9.358180,8.774165,-5.394479,-17.821577
9.391919,-3.135169,-3.745862,-10.095362
9.426411,5.040423,3.553421,-0.666959
9.458348,5.222688,3.128435,-0.892620
9.491598,-3.170485,17.457795,4.126554
9.524977,-13.846163,23.172809,10.160008
9.558193,-19.905804,30.941672,0.821689
9.592253,-16.979237,22.383442,-3.222561
9.625156,-9.102780,4.758197,-8.653702
9.658473,9.523726,-7.653040,-12.412882
9.691988,9.986871,-3.954764,-16.858325
9.724848,-4.090789,-2.848453,-9.084075
9.758555,0.080957,-0.171491,-0.746269
9.792096,-1.593099,8.623624,2.820021
9.825273,-9.853240,15.762640,8.239041
9.858130,-21.011665,25.368969,0.859998
9.891873,-21.018549,24.068572,-4.877163
9.924999,-10.469769,10.681214,-5.816172
9.959860,0.826628,-5.226579,-15.815164
9.991491,9.376777,-6.861578,-19.101024
10.025189,-3.818140,-5.959231,-7.338191
10.059638,3.856149,-0.471675,3.310551
10.091676,5.032941,3.170036,-2.452049
10.125244,-2.536448,8.277949,8.243830
10.158561,-13.128924,29.102860,5.236905
10.191653,-26.248869,37.727381,-2.348496
10.225289,-9.071505,17.402427,-4.631898
10.258360,-5.067958,-3.541151,-10.447771
10.291474,2.789195,-7.551282,-10.479645
10.325606,8.838361,0.206956,-10.158362
10.357987,7.233590,3.032514,-2.712129
10.392092,3.557013,-2.396981,-1.837615
10.425207,-6.543587,8.753813,3.963892
10.458416,-13.211078,13.214220,5.359013
10.491648,-21.679522,25.093775,0.635085
10.525301,-21.201413,22.295153,-8.171403
10.558409,-10.650837,10.771150,-10.867370
10.591935,3.020244,-9.663044,-8.103016
10.625151,13.012352,-2.105776,-16.941078
10.658488,-5.153404,-5.922868,-4.937319
10.692163,-1.352473,2.749390,2.329192
10.724956,0.180918,5.785047,-0.145004
10.759029,-6.399780,16.075992,6.380027
10.791757,-15.610603,20.221700,7.276837
10.825075,-21.800583,27.607777,-1.954786
10.858405,-13.659558,19.584970,-5.405702
10.891527,-10.276729,6.350996,-2.465218
10.925340,17.190084,-8.671509,-10.603849
10.958037,12.254560,-3.185150,-15.505703
10.991823,-4.718841,-1.239941,-9.148122
11.025523,3.160010,-1.879515,-1.968254
11.057987,0.533178,9.159944,2.751635
11.091679,-10.224205,17.002132,9.397727
11.125282,-22.380898,26.668318,2.055645
11.158743,-22.383143,26.880662,-2.943626
11.191735,-11.042901,15.394817,-8.054831
11.225525,4.403992,-7.622213,-12.948754
11.258436,10.134569,-8.687521,-20.829101
11.291776,-0.347920,-3.478450,-13.332588
11.325461,1.852580,1.963465,2.379323
11.357971,4.533882,1.448544,0.222968
11.391929,-1.146714,17.504484,7.475413
11.425555,-11.228010,22.967948,9.156502
11.458123,-19.502965,32.930577,-0.014665
11.491757,-17.079947,29.362041,-5.503868
11.525510,-5.407946,1.047501,-7.117767
11.557936,12.807940,-10.583946,-15.333314
11.591678,7.420943,-3.391508,-14.488580
11.625152,-4.366282,2.121039,-5.765144
11.658233,2.728290,-0.285519,-0.649600
11.691504,0.902796,2.807451,1.977083
11.725513,-11.545253,13.564535,5.867051
11.758240,-19.903709,25.742328,2.305699
11.791752,-26.734461,25.936116,-5.109409
11.825136,-12.301847,9.914145,-8.175742
11.857974,-3.722817,-3.755888,-11.518317
11.891813,10.971971,-8.980971,-12.782650
11.925196,2.884817,-2.189127,-12.275510
11.958024,-1.160481,-1.160032,-1.571700
11.991732,2.850548,3.072768,0.794005
12.025201,-1.065458,14.939753,1.085959
12.058426,-12.395973,23.855630,9.534949
12.091792,-16.420919,27.656411,8.199236
12.125225,-15.780148,23.403858,0.615930
12.158012,-8.839708,8.924705,-3.964191
12.191906,0.298987,-0.346872,-9.376028
12.225220,17.284509,-2.587476,-16.240749
12.258027,2.019432,-1.361601,-9.759414
12.291709,1.363547,-0.703322,-2.371092
12.325359,2.920731,1.569605,-0.800889
12.358421,-7.831115,14.528834,6.041535
12.391890,-18.227109,25.118766,9.714820
12.425463,-22.433722,24.572868,-0.130938
12.458341,-8.664925,10.817838,-2.720658
12.492120,-4.887488,0.440100,-11.793361
12.525293,10.282865,-0.323528,-18.243570
12.558231,8.157785,-5.082323,-18.317344
12.591885,-1.446598,-5.618644,-9.950208
12.625531,0.895014,1.019068,-2.902924
12.657964,-5.351980,11.933576,0.385929
12.691701,-11.681428,18.450377,4.782589
12.725629,-13.712681,29.353661,3.829812
12.758079,-20.945074,24.496101,0.114626
12.791755,-7.785174,9.040080,-4.930585
12.825212,0.619671,-2.949462,-13.771341
12.857948,5.344498,-9.471501,-11.146753
12.891804,4.361493,-3.292294,-13.471756
12.925536,1.855722,1.562572,-1.332122
12.958031,1.148360,4.692354,-0.189747
12.991894,-8.429238,12.092497,6.039440
13.025387,-22.330618,22.316103,3.042989
13.058352,-24.653825,21.524941,-1.747081
13.091797,-12.498329,14.742973,-3.812902
13.125517,-5.411388,-4.161870,-9.473895
13.158003,6.357880,-4.515775,-15.168857
13.192319,7.941402,-3.137713,-18.261527
13.225226,-2.489011,-1.794818,-8.342295
13.257993,5.647674,3.995916,-1.980824
13.292187,1.952990,8.048097,-4.973982
13.325270,-17.746157,24.250537,7.343578
13.358559,-12.643183,19.062117,5.640791
13.391948,-24.774437,25.055616,2.411795
13.425081,-12.119433,10.084887,-2.227884
13.458096,-1.000363,1.539377,-11.832118
13.493343,1.589507,-5.760505,-11.070735
13.525009,9.935095,-2.377377,-14.393856
13.558531,8.333915,0.836205,-11.691753
13.593148,2.758817,3.020992,-0.436359
13.624638,-7.468530,11.799795,2.841720
13.658595,-15.960767,19.851035,6.413846
13.692800,-20.164537,23.484814,2.123583
13.725021,-17.564640,16.780361,-0.046988
13.758136,-9.894092,8.170804,-5.724591
13.792723,-7.351060,-5.978385,-12.248574
13.825407,7.670099,-2.528218,-16.786646
13.858596,7.485739,-4.245670,-19.351527
13.891965,1.145966,-3.522445,-6.045575
13.925020,3.881439,5.212962,-4.263477
13.958748,-7.361385,19.879467,-1.229466
13.992010,-15.830278,24.474104,10.422033
14.025045,-12.400163,25.068037,3.406622
14.058595,-17.549377,19.287629,1.306233
14.091900,-9.425560,4.779895,-10.873505
14.125192,3.460344,-4.642523,-6.738123
14.158403,14.666655,-8.374917,-16.637901
14.191962,-5.239000,-0.891573,-8.445698
14.225045,0.677284,-0.085745,-0.352559
14.258121,6.195218,5.606223,-3.943541
14.291648,-11.524003,18.821940,9.249281
14.325249,-23.371235,22.857511,6.081938
14.358448,-25.826278,23.583878,-2.217260
14.391726,-13.222151,11.827030,-8.631405
14.425523,-10.555664,-3.703663,-11.874467
14.458491,10.288701,-8.692310,-9.785302
14.491691,12.864505,-2.843964,-19.682238
14.525487,-5.433984,-5.773674,-7.506988
14.558489,-0.215336,2.838876,0.991085
14.591779,0.500256,8.098676,2.242998
14.625447,-11.906491,19.866298,8.721640
14.658194,-10.940994,27.078939,8.375665
14.691760,-22.705773,30.847247,-1.362050
14.725329,-10.954313,13.683351,-4.406386
14.758588,-3.615523,1.469494,-13.095703
14.791916,6.546131,-8.962864,-15.231108
14.825970,5.786393,-2.229381,-14.103548
14.858004,3.977510,2.111911,-6.680510
14.891820,4.131193,2.938239,-2.666338
14.925761,-6.004573,16.657205,6.872352
14.958132,-17.428315,17.466025,9.299711
14.991853,-24.082189,24.731639,2.007161
15.025389,-19.108058,20.761762,-2.889156
15.058422,-8.454826,6.139551,-9.513401
15.092199,5.213710,-4.723480,-15.857364
15.125026,9.960085,-2.877634,-19.767833
15.158122,-0.296742,-5.261895,-11.818950
15.192347,1.964513,0.641370,-0.309611
15.225079,0.690901,6.535506,0.088738
15.258099,-6.390352,16.413736,6.465623
15.292197,-11.674843,21.267555,5.929602
15.325223,-24.828758,30.004907,1.324190
15.358201,-16.765696,22.667315,-1.345290
15.392328,-2.886912,3.498652,-9.114902
15.425000,9.219053,-6.501986,-10.640212
15.458105,11.286071,-4.794410,-15.005297
15.492198,1.619286,0.248856,-6.361322
15.525310,3.550429,-1.371328,-2.177155
15.558081,-0.322929,6.303559,-0.492176
15.592417,-17.393598,17.102393,6.454250
15.624820,-19.941419,27.063226,2.400572
15.658411,-25.443940,26.605917,-1.473983
15.692225,-13.275574,9.182989,-10.035355
15.725031,-7.320683,-9.584930,-12.602031
15.758169,11.479260,-10.181556,-14.979409
15.792307,10.650388,-1.015327,-14.141857
15.824819,4.584761,3.213732,-2.213818
15.858454,1.293065,6.494504,1.444054
15.892296,-5.813479,16.269630,3.693038
15.925045,-14.044290,20.282904,8.565263
15.958471,-15.161524,27.331087,5.116592
15.991946,-15.957924,23.862813,-0.650049
16.024768,-12.277755,7.657379,-6.144489
16.057977,-6.183845,-1.771324,-9.143483
16.092198,16.881370,-8.553142,-16.911149
16.125031,4.364337,-0.455962,-11.649853
16.158612,2.131664,3.685107,-3.378489
16.192596,4.792016,4.444396,-1.305485
16.225022,-4.971887,13.004870,6.041834
16.258137,-17.231984,18.088690,8.463356
16.292398,-23.443064,25.521305,-2.374385
16.325183,-17.785364,22.523358,-5.102076
16.358109,-15.405592,11.103207,-10.920793
16.392324,6.991318,-11.538219,-10.306359
16.425021,17.691837,-6.848709,-19.285833
16.457986,-2.076146,-4.832569,-7.903542
16.491893,2.479284,1.220488,1.517679
16.525073,6.407412,9.423166,-3.031018
16.557975,-3.403928,15.117379,7.194683
16.592025,-19.299750,27.354282,8.632153
16.625105,-25.665411,33.045951,1.339454
16.658348,-13.922780,19.672511,-4.159924
16.692190,-3.358437,-1.804095,-11.043799
16.725262,6.270189,-7.890673,-10.343769
16.758525,12.854329,-4.629354,-12.205178
16.791840,5.929003,-1.664778,-9.231473
16.824982,1.715357,-0.438005,-3.724314
16.857982,-4.286522,6.451556,3.020094
16.892200,-12.295113,15.898516,7.478107
16.925525,-20.430303,24.062885,4.969193
16.958341,-24.871256,27.009205,-0.414810
16.992297,-11.730361,15.988301,-5.080378
17.024749,1.789580,1.569006,-10.766511
17.058031,12.964616,-11.683523,-19.462262
17.092175,-0.463145,-8.050491,-16.042622
17.124626,-3.584697,-2.062678,-6.898989
17.158611,5.032193,4.254648,-3.020992
17.192411,-1.609111,11.278888,3.743767
17.225012,-11.534778,18.223069,8.321046
17.258766,-12.389388,24.927971,6.104534
17.291895,-21.263963,28.426324,-0.948736
17.325028,-12.759007,15.992192,-4.068343
17.358861,-3.754093,-0.459105,-12.269375
17.392034,6.149427,-8.761445,-15.979173
17.425143,2.229979,-1.172153,-12.754368
17.459171,6.973661,3.190537,-1.232459
17.491685,5.903714,4.225618,1.271965
17.525141,-1.391679,12.768883,7.806573
17.559318,-17.386864,18.318990,6.065926
17.591753,-26.304686,26.824845,1.339903
17.625203,-24.273882,24.985284,-1.645175
17.659101,-5.566867,4.186710,-7.019302
17.691631,6.838383,-10.690791,-14.881841
17.725222,8.723136,-4.311662,-20.304303
17.758677,-2.790542,-3.689746,-10.054210
17.791983,7.302576,3.510175,-3.852707
17.826459,5.369339,2.692376,-4.113385
17.858297,-9.009403,21.012414,6.873549
17.891817,-13.996554,29.791067,12.252615
17.925214,-15.192351,32.255238,3.828465
17.958033,-16.321107,11.653744,-0.684467
17.992256,-11.650601,-2.266941,-7.310507
18.024836,4.138376,-1.704732,-13.528022
18.058428,13.560494,-1.660288,-15.696947
18.092103,4.794261,-2.319316,-12.350032
18.124943,0.238830,1.677497,-1.964812
18.158361,-5.616399,12.504763,-1.512741
18.192165,-14.457304,17.384919,8.792571
18.229585,-16.342955,25.262872,6.357281
18.258301,-18.500058,24.333440,2.045469
18.291701,-9.935394,12.329831,-3.381631
18.324788,-7.795799,1.093291,-9.018831
18.358241,11.461453,-1.885651,-20.650427
18.392325,8.865147,-7.243467,-23.051149
18.425017,-4.339795,-5.419918,-11.304776
18.458372,6.031359,3.140257,-2.359121
18.491801,1.378062,10.917949,-0.374706
18.524974,-13.775531,25.182214,7.776944
18.558406,-12.720399,22.383442,10.047476
18.592412,-17.916002,29.141019,-0.451323
18.624971,-16.263345,13.353837,-4.924600
18.658102,-0.777994,-3.280922,-12.148912
18.692175,13.125033,-10.582001,-17.402278
18.725027,6.355037,-2.128521,-14.424533
18.758179,5.785496,6.282460,-2.331138
18.792289,3.480845,5.270425,-1.811129
18.824615,-5.105069,12.519279,7.643762
18.857977,-22.591745,19.445502,8.111396
18.892047,-25.120412,25.967690,-0.511330
18.925023,-19.325339,23.579987,-7.442791
18.958462,-1.888943,4.429581,-8.889539
18.992282,9.495294,-9.590168,-18.905291
19.025065,7.627002,-6.493606,-20.966773
19.057981,-7.864635,-4.566355,-9.562035
19.092181,2.497990,2.464919,0.015413
19.125019,5.854182,3.703064,-3.004082
19.157957,-10.349306,17.111821,5.910148
19.192020,-13.876390,26.345838,7.888129
19.225280,-17.891011,31.183495,1.666424
19.258046,-12.055236,13.797229,-1.761597
19.292262,-4.370173,2.180597,-7.438751
19.324646,3.734190,-0.234939,-12.168665
19.358050,8.411430,-4.559621,-16.865209
19.391961,0.905190,-2.556650,-12.361405
19.424968,2.195262,0.961606,-4.292957
19.457962,0.172239,5.084418,3.939949
19.491545,-9.932700,18.970985,9.559191
19.524915,-19.067654,25.589692,5.300652
19.558432,-20.797227,26.016623,-1.571550
19.591699,-13.379576,17.442532,-3.622706
19.624566,-3.435652,0.619372,-7.416604
19.657972,14.217726,-6.760719,-23.383656
19.691776,-4.978022,-5.433236,-18.950483
19.724633,-2.192120,-1.472636,-12.007500
19.757910,12.372329,3.334643,-7.519708
19.791809,-2.063576,11.103956,2.382016
19.824607,-17.402427,18.680827,7.332355
19.857988,-8.362646,20.153314,5.771728
19.891704,-19.383101,27.596105,-0.590042
19.924957,-16.416280,18.404736,-2.642096
19.957988,1.897323,3.657124,-7.511926
19.991944,9.482874,-9.659602,-14.560857
20.025021,2.270532,-4.599426,-15.618234
20.058562,-0.607999,1.672110,-9.635659
20.092212,2.821967,-0.357347,-1.989802
20.124893,-0.869276,6.581297,1.458121
20.158398,-12.634653,19.528405,5.782952
20.192348,-17.516455,25.913669,-0.229852
20.224975,-22.985755,24.617462,-3.598314
20.258337,-11.871175,10.703810,-7.747315
20.292200,-3.348860,-7.050876,-12.262192
20.324604,8.436869,-10.029370,-19.599485
20.358413,-0.352559,-3.407968,-11.710309
20.392305,6.836438,1.397067,-1.382551
20.425861,3.596070,4.834664,-2.270682
20.458415,-5.057183,13.235919,8.289621
20.492363,-10.527980,15.588755,7.383383
20.525026,-13.217662,27.898832,4.280387
20.558401,-21.645852,28.871661,-0.813010
20.592282,-8.238742,10.382826,-4.829277
20.625009,0.469430,-5.890695,-11.228758
20.658540,9.206483,-6.768500,-16.420919
20.692182,1.229616,-1.796464,-9.704944
20.725155,5.906557,2.758368,-0.479905
20.758484,4.529093,6.167833,-1.883107
20.792289,-10.645001,12.226278,7.095320
20.824713,-24.220609,19.935583,6.157807
20.858361,-23.285939,24.695725,-3.886976
20.891661,-13.272581,15.965705,-8.080869
20.925160,-6.859782,-1.671362,-12.913438
20.958498,13.895096,-9.010600,-21.512371
20.991807,7.632688,-6.710439,-17.148333
21.025103,-0.387126,-4.561716,-6.988775
21.058554,4.613492,7.114026,-1.273312
21.091948,-3.570181,10.931567,3.587540
21.125409,-11.425389,16.082127,5.006604
21.157946,-17.804069,29.394514,6.583392
21.191944,-21.518656,29.892226,-0.465090
21.225088,-7.167448,8.282737,-8.065755
21.258428,-5.390289,-3.185898,-14.521352
21.292189,5.923317,-7.198873,-10.205200
21.325040,6.761766,-2.531809,-11.783783
21.358549,3.913462,-0.222070,-2.801615
21.392512,3.859441,2.555153,-5.095043
21.425019,-4.546302,13.523532,6.979946
21.458547,-8.888791,17.266102,6.863374
21.491893,-28.811205,31.231979,0.532430
21.524593,-21.842333,24.882180,-3.131428
21.557960,-6.661356,6.462630,-10.879491
21.592291,-2.830047,-8.671210,-16.559189
21.625021,6.281712,-4.505300,-18.407878
21.658196,2.777972,-5.746888,-12.978084
21.691898,4.054875,-0.184959,-3.420538
21.725016,-1.954038,7.972228,2.341762
21.758835,-5.509255,10.835197,6.450210
21.791791,-9.435437,21.382630,6.981891
21.824959,-26.153397,29.796455,-1.644875
21.858483,-18.561861,21.691194,-7.576572
21.891840,-10.835496,8.746331,-9.047413
21.925022,6.250885,-7.266811,-6.606138
21.959122,12.945911,-8.249516,-14.731600
21.991706,1.222733,-2.862370,-6.977551
22.025044,1.755461,2.402069,-4.844241
22.059149,0.851019,3.800033,8.461710
22.091687,-4.729465,12.852683,8.024753
22.129397,-23.419869,24.426517,1.274659
22.158019,-23.898876,26.706328,-6.730192
22.191688,-15.434473,19.791626,-8.010986
22.225200,-5.014086,0.831715,-15.972290
22.258062,1.441959,-12.646924,-13.242952
22.292042,11.124457,-4.472229,-20.251330
22.325219,1.977382,-3.138312,-3.031018
22.358372,3.012313,4.027041,-2.753580
22.391944,0.379495,12.149660,6.261959
22.425235,-7.758987,22.160923,7.414808
22.458950,-20.295624,30.127465,7.454014
22.491994,-23.582831,30.796219,-1.322694
22.525201,-4.393816,6.337977,-8.721041
22.558328,-2.070909,-7.644959,-16.083624
22.591677,2.820021,-4.141817,-11.190599
22.625212,10.658169,-1.881610,-11.380645
22.658303,8.148956,1.695604,-1.775364
22.691691,0.262474,2.111462,0.670400
22.725509,-13.330942,12.897875,6.796034
22.758450,-16.907708,19.318456,5.353027
22.792205,-27.465018,25.977267,0.738638
22.825225,-14.236581,19.404949,-3.891764
22.858468,-5.250073,6.559898,-8.681984
22.891808,6.481934,-5.853733,-17.203103
22.925228,7.107441,-6.171275,-19.771874
22.958032,-3.580956,-7.257533,-11.021802
22.991925,4.882251,3.495210,1.681687
23.025221,2.653918,3.114818,-0.378447
23.058009,-8.613897,13.915896,6.752339
23.093669,-11.347425,27.359220,9.908608
23.125393,-17.131873,34.184734,0.675039
23.157939,-16.721402,22.320143,-1.330625
23.191759,-8.781647,6.424770,-3.743767
23.225206,9.986721,-7.046237,-15.884599
23.258109,2.407456,-3.533519,-17.109875
23.291802,-5.139786,1.443306,-9.772433
23.325230,9.358670,1.375069,-3.833254
23.358046,5.040423,6.705800,-0.585553
23.391938,-12.132452,18.058013,9.473296
23.425219,-19.463460,18.772408,4.945250
23.457974,-24.883976,25.868776,-3.906429
23.491705,-17.508674,16.594954,-6.658812
23.525114,2.135704,-1.891786,-13.637560
23.558341,11.861598,-9.046515,-21.205902
23.591919,0.523601,-4.553934,-14.054615
23.625221,0.842490,-1.692462,-7.228951
23.658473,6.349799,2.892299,-2.473897
23.691832,2.464619,8.398710,0.994976
23.724711,-8.933983,17.696775,7.517014
23.758486,-11.515324,24.973462,5.488305
23.791739,-26.318453,31.571519,-3.007225
23.825112,-11.041255,12.833229,-4.320342
23.858169,-5.173905,3.998011,-10.812601
23.891824,4.048291,-8.875174,-13.070264
23.925205,1.019068,-5.129910,-12.959678
23.958120,1.550151,1.474432,-7.139764
23.992010,3.914061,1.929945,-2.594060
24.025095,-4.702081,13.377182,2.071657
24.058353,-15.798404,18.342634,5.896830
24.091680,-28.830509,23.494541,3.493564
24.125254,-14.910124,22.700685,-5.236007
24.158526,-8.259542,7.595726,-11.250306
24.191711,2.689982,-10.556562,-14.227602
24.225199,7.598420,-7.003440,-18.201221
24.258423,-3.753195,-6.432252,-5.101627
24.292119,5.367244,6.413697,-1.429389
24.325227,0.703023,4.698190,1.622578
24.358561,-7.014363,11.050234,8.279445
24.392966,-7.531829,20.666140,6.641154
24.425207,-27.695617,34.566473,-0.504147
24.458061,-15.449736,22.046596,-2.232373
24.492482,-0.096969,6.568876,-7.833659
24.525340,-0.142161,-9.282053,-11.110241
24.558150,3.266855,-6.768799,-11.982360
24.593373,1.551199,-1.724336,-9.831392
24.624651,1.851981,-1.255804,-2.938688
24.658789,3.683760,5.498181,3.794047
24.693200,-9.532405,16.422715,7.608895
24.724589,-23.738609,23.818069,4.318995
24.758525,-25.104849,31.049415,-0.571935
24.792983,-10.304413,12.496982,-1.319701
24.826230,1.510795,-1.889841,-13.591171
24.858472,9.935394,-8.229165,-21.255434
24.892049,3.219119,-3.822180,-17.668941
24.924972,5.312474,-1.684830,-6.223800
24.958244,3.731796,1.958826,-4.088694
24.992844,-7.911174,10.930968,5.980181
25.025023,-10.753941,22.113935,8.164669
25.058555,-13.573064,28.234033,6.311640
25.092503,-16.370938,27.224541,-1.144619
25.125072,-10.583198,8.333167,-1.273013
25.158525,-1.577985,-1.819958,-10.579607
25.192808,5.819614,-6.342766,-14.188546
25.225181,2.572063,-1.400658,-13.415490
25.258903,5.252168,1.021163,-9.633414
25.292428,4.273054,4.275748,-4.225767
25.325207,-5.658748,11.981911,4.275598
25.359108,-16.005211,19.730572,6.607185
25.391903,-22.588304,28.430364,-1.871135
25.425171,-15.793766,23.385152,-2.479135
25.458399,-12.304092,5.247529,-7.881245
25.491693,8.065007,-7.665759,-21.003285
25.525271,3.417845,-8.505256,-21.962497
25.558430,-8.184122,-8.160030,-10.354693
25.592165,10.670141,5.731026,-5.154751
25.625059,3.985590,5.703791,-2.443819
25.658408,-8.005149,12.398966,2.932553
25.693861,-11.668409,24.196666,6.907219
25.725154,-19.244682,31.910161,0.964598
25.757996,-17.273136,22.019960,-0.796400
25.792589,-4.649257,4.838705,-7.568940
25.825018,1.438218,-2.447410,-15.510043
25.857956,0.381889,-7.023192,-15.087002
25.892571,-1.479520,-2.430950,-12.693463
25.924631,3.288553,-0.743875,-2.904270
25.958400,5.415578,2.830496,-0.652294
25.991929,-5.052395,14.660071,9.179248
26.025554,-10.022187,19.841907,7.984499
26.058466,-22.715051,28.836794,-1.007995
26.091910,-20.212422,21.338336,-1.342896
26.125024,-12.641836,8.911237,-6.005171
26.158188,1.789879,-9.019878,-15.482209
26.191950,1.982769,-2.106524,-22.331367
26.225026,-4.524006,-3.999956,-14.751951
26.258537,9.716317,-0.536171,-6.780172
26.292168,4.864294,10.300822,-1.261789
26.324926,-6.285602,18.594184,4.343387
26.358662,-13.155860,27.444516,12.857322
26.391934,-11.956771,26.408389,4.544956
26.424963,-17.116460,19.594247,0.635234
26.458381,-13.535803,4.849479,0.475715
26.492255,1.215550,-5.860317,-13.477742
26.524762,4.867436,-1.809483,-16.721253
26.558435,2.525225,3.005579,-12.355569
26.592358,7.682819,2.739364,-5.256657
26.624811,1.131301,0.439202,-2.421073
26.657930,-9.742803,10.813648,5.921671
26.695889,-15.755607,28.885279,6.712085
26.724791,-22.629904,35.280569,0.346423
26.758040,-12.650216,15.680037,-3.792551
26.791814,-6.547029,-5.753921,-15.579477
26.825023,0.511629,-8.772967,-21.646152
26.858162,2.555303,-8.593994,-17.241262
26.892193,4.871626,-4.419256,-10.884878
26.924618,2.672623,6.169030,-1.949848
26.958059,-1.341848,12.193207,3.836097
26.992276,-7.745070,20.292481,7.155178
27.024606,-21.603653,31.766504,5.924963
27.058354,-18.436011,27.094651,0.408376
27.091920,-5.436379,7.271749,-6.702208
27.124979,-5.821859,-3.558210,-9.941828
27.158025,10.491467,-7.029627,-11.716743
27.192550,3.979156,-2.143486,-10.954163
27.225035,3.529479,2.759416,-3.933215
27.258489,1.653555,7.067487,0.534525
27.292277,-8.162125,16.090956,8.203127
27.325024,-18.365529,17.853451,7.512675
27.358424,-32.236981,27.182941,-0.373958
27.392361,-16.689827,16.322604,-9.080035
27.424646,-6.800374,0.510731,-10.611331
27.458346,7.500553,-11.544205,-17.645148
27.491880,4.026443,-3.851361,-19.879916
27.524976,-3.104044,-3.160010,-10.088778
27.558565,9.395183,2.779318,-2.230129
27.591963,-0.394010,12.378764,4.777501
27.625271,-14.651840,19.850287,6.999100
27.657939,-12.907452,23.092301,8.477423
27.692020,-22.293507,31.145486,1.148061
27.724972,-14.690598,14.769609,0.151289
27.757969,-6.240560,0.184959,-7.264267
27.792294,6.090019,-4.858757,-10.464082
27.824963,6.908566,-4.565906,-14.289704
27.858376,4.200178,1.776262,-9.008805
27.892175,5.911944,0.496515,-1.190709
27.925084,2.042028,6.704453,0.083800
27.957962,-14.159964,17.881135,9.304499
27.991949,-20.839277,24.736727,2.827354
28.025281,-24.069170,29.149249,-2.807601
28.058166,-16.684740,12.991701,-2.292829
28.092190,3.273888,-5.513145,-13.695472
28.124577,4.395612,-10.907624,-19.452985
28.157963,-3.998908,-4.628606,-16.492598
28.193226,7.862989,2.081234,-4.692204
28.224948,10.687200,4.465346,-3.315938
28.258474,-0.293001,10.677324,-1.585617
28.291952,-18.199276,24.248891,8.976033
28.324967,-11.879854,24.549674,7.715441
28.358446,-19.212359,25.121310,4.226366
28.391923,-12.042965,2.251528,-0.832464
28.425036,-4.932082,0.771559,-10.830857
28.459322,10.258772,-6.388108,-16.259155
28.491641,5.437276,-2.216062,-14.706909
28.525011,1.981722,1.836119,-9.757768
28.559254,-0.639574,10.149832,-6.145686
28.591678,-10.244406,13.195515,5.513894
28.625043,-13.249985,21.664109,6.533261
28.659322,-24.388209,31.049864,4.359398
28.691684,-16.684590,13.247740,1.716255
28.725133,-10.699022,-0.230899,-8.379706
28.759248,4.582067,-4.196886,-12.763346
28.791744,15.079071,-3.211338,-21.547238
28.824961,2.694172,-3.284363,-14.183607
28.859078,2.830646,1.966159,0.388174
28.891627,0.088589,8.734210,-3.012313
28.925213,-13.797678,21.277731,2.983431
28.958917,-9.795328,24.158657,6.886718
28.991678,-17.503436,30.200341,4.248812
29.025292,-18.044545,13.342165,5.742847
29.058594,-2.358672,0.850122,-10.887422
29.091628,2.321411,-5.923167,-16.925964
29.125214,0.283424,-1.500769,-14.519107
29.158468,11.377204,-0.116721,-15.507349
29.191813,3.783123,-1.314314,-2.067617
29.225206,-4.135233,12.241392,0.433965
29.258270,-15.755906,20.564083,8.471287
29.291689,-20.360569,26.638988,6.174567
29.325206,-21.094717,24.331345,2.532258
29.358024,-8.705778,4.233249,-6.161099
29.392172,-0.324725,-2.192120,-15.604018
29.425181,10.779081,-4.573837,-22.989796
29.458339,0.476912,-3.746610,-18.476564
29.492342,1.477874,-0.056864,-9.544826
29.524973,3.602654,3.613428,-1.030142
29.558472,-4.984008,19.015728,2.177006
29.592723,-11.530887,22.519617,9.778269
29.625157,-8.972890,23.722747,6.896744
29.658343,-20.784208,24.284656,1.155393
29.692235,-12.907752,6.793191,-1.957330
29.724984,-3.520350,2.384261,-13.619005
29.758471,8.508997,-9.801314,-14.388618
29.792395,4.963507,-2.096947,-14.383979
29.824983,4.831971,0.717239,-7.259179
29.858471,2.392342,6.984285,-4.309268
29.892162,-8.544313,16.829444,3.826520
29.925034,-8.251611,22.314307,4.055174
29.958083,-29.099717,28.967133,0.188700
29.991961,-19.651860,16.753426,-1.787036
30.025037,-13.138501,0.200522,-6.443476
30.058109,14.801782,-8.017570,-19.655601
30.092155,10.749302,-3.587839,-18.996723
30.125037,-3.997562,-5.258304,-10.353646
30.158467,6.402324,2.678758,-3.798088
30.192413,3.499849,6.802768,-0.406730
30.225336,-9.560987,22.317450,3.184252
30.258339,-17.739273,29.340493,6.240560
30.292017,-14.631189,27.805006,1.503912
30.324675,-15.706224,14.458950,-0.281329
30.358345,-11.272304,-1.125914,-10.477849
30.392250,5.444010,-6.979197,-14.214883
30.425034,11.193442,-3.916904,-18.258983
30.458533,4.357303,-0.716490,-11.821793
30.492168,1.417717,2.465517,-0.251699
30.525030,0.745820,8.371924,-1.700393
30.558427,-13.867262,23.121182,10.375045
30.591924,-21.250196,24.034603,5.813479
30.625118,-22.680933,25.780637,-0.202617
30.657969,-11.467289,3.543994,-4.579673
30.692170,1.656847,-5.398220,-13.791992
30.725102,11.915020,-5.215805,-24.185742
30.758410,-6.142095,-3.635276,-16.361810
30.792305,4.961113,-0.678331,-13.870405
30.825054,7.622363,3.691392,-5.684636
30.858700,-4.643720,20.086423,-0.163709
30.891934,-12.795220,28.152028,10.908073
30.924976,-7.458055,24.287200,8.912135
30.958495,-23.194058,24.328651,4.115181
30.991287,-21.884533,5.079779,-1.238744
31.025001,-8.722089,1.584420,-11.892424
31.058346,10.755587,-10.119305,-17.220461
31.091910,6.264054,3.797339,-18.018657
31.125010,3.770853,6.307749,-12.928552
31.158215,2.673072,5.052544,-2.082581
31.191954,-9.864762,16.199448,0.171790
31.225017,-22.064254,20.897189,8.436121
31.258646,-18.932227,27.517692,1.532942
31.291793,-15.381200,12.015131,-0.666360
31.325052,-14.052071,-0.206657,-8.451834
31.358088,-0.131686,-5.119136,-16.440822
31.391942,13.451255,-4.902153,-22.192797
31.424725,3.596668,-2.633566,-13.024324
31.458359,7.523748,5.236306,1.560177
31.491887,4.003098,10.246501,-4.717943
31.525125,-10.536659,22.892378,2.352686
31.558378,-16.863264,23.903366,7.036960
31.592019,-21.602605,22.242479,3.164799
31.625325,-18.605407,8.066952,-1.072790
31.658569,-10.120053,-1.055432,-13.889709
31.692164,-0.636581,-7.060454,-7.798792
31.724668,15.553888,-3.668946,-9.837378
31.758714,7.958461,3.832655,-7.302127
31.791981,-1.937727,5.103273,-2.259758
31.825181,-5.431440,10.372950,5.982276
31.858351,-8.454976,21.376345,2.500983
31.892086,-31.426515,31.967624,3.662212
31.925354,-16.353430,17.199811,-0.255889
31.958555,-4.778698,4.719140,-9.815530
31.992264,-7.302725,-12.078879,-18.191494
32.025289,-1.462161,-8.851530,-20.853343
32.058540,1.734661,-4.596283,-11.839002
32.092174,10.698722,4.420752,0.104451
32.125202,5.260847,9.063125,-4.711508
32.158556,-7.894264,21.771103,4.937918
32.192008,-8.871283,28.590781,8.343941
32.225079,-20.338871,32.943595,5.164477
32.258064,-20.359372,16.240300,1.903009
32.292280,-9.947665,1.704284,-7.195880
32.325166,1.026401,-10.361278,-16.705839
32.358476,4.354310,-3.768009,-14.290901
32.392270,9.243295,-0.909231,-9.170120
32.425054,4.576081,2.807601,-1.669866
32.458992,-1.176194,9.837228,4.365234
32.491274,-13.820873,18.063999,3.698874
32.524711,-21.524641,22.447490,0.690303
32.558515,-26.806589,25.079410,-4.474324
32.591972,-15.232006,10.604148,-6.456046
32.625292,2.545127,-11.213045,-12.422160
32.658860,7.387124,-8.179483,-17.387912
32.691689,-0.673244,-5.203385,-11.567699
32.725005,3.961797,-2.100538,-9.675015
32.758860,4.583713,4.681879,-0.969986
32.791760,1.428043,7.930029,6.012055
32.825232,-6.926074,26.376515,3.749753
32.859440,-28.203505,34.788094,8.055130
32.891635,-18.252250,27.527718,0.881846
32.925211,-4.912628,4.830474,-6.293683
32.958473,-8.627963,-13.382419,-15.919765
32.991681,-2.680404,-5.889946,-12.323396
33.025211,15.559874,1.280944,-9.726492
33.058382,15.087152,2.335477,-9.846805
33.091798,-0.834858,3.743767,-2.207682
33.125215,-15.994736,17.749748,5.256657
33.158724,-13.048865,23.657802,7.444288
33.191746,-26.590953,34.333479,3.965987
33.225306,-18.379745,12.094143,-0.305571
33.258546,1.026251,-3.311149,-8.398261
33.291674,13.556753,-3.290798,-23.441268
33.325192,-0.896212,-7.295992,-20.380023
33.357997,-2.386805,-5.915835,-7.826925
33.391731,10.201309,1.969301,2.623690
33.425211,-1.343494,10.417094,4.025246
33.458370,-8.821751,14.328013,7.753899
33.492284,-6.857538,25.565450,8.680488
33.524649,-26.979426,39.160512,0.056715
33.558104,-15.547453,16.919380,-2.365556
33.591733,1.087006,3.524091,-9.666336
33.624860,1.818461,-8.552094,-14.180914
33.658295,-3.476804,-4.490934,-10.103592
33.691797,10.997260,4.733356,-21.402084
33.725286,0.819445,-4.572041,-6.023278
33.758083,-3.799584,5.240646,2.786352
33.791910,0.136025,10.851807,6.846763
33.825311,-6.026870,37.379910,1.348133
33.858418,-25.122806,37.781702,-0.788319
33.891680,-10.525436,17.289596,3.504488
33.925129,-0.410770,-6.862177,-11.521310
33.958330,-3.252789,-4.509789,-9.288038
33.992010,-11.065946,-2.702103,-8.753663
34.024908,-8.441957,-3.799584,-6.223201
34.058468,-2.203792,-4.238337,-2.118196
34.091358,2.347000,-0.651695,-3.306959
34.125431,-1.889990,14.629843,-5.576145
34.158317,-8.017869,30.197348,-3.323570
34.191867,-3.407071,26.419911,1.334366
34.225220,4.142715,19.014381,1.590106
34.257943,1.678844,13.615264,-0.187353
34.291811,-1.173350,7.476012,1.618538
34.325208,-1.374022,1.996087,4.073131
34.358512,0.727414,2.721856,3.925284
34.391740,0.555774,2.627281,4.107549
34.425231,1.005002,5.286436,4.902752
34.458382,1.888344,9.956194,4.571143
34.491735,2.483175,27.127872,7.624607
34.525531,2.646884,14.625802,8.475328
34.558238,-1.009491,11.958866,7.466435
34.591776,-3.375047,14.583304,4.065500
34.625528,0.909530,17.953861,-4.548098
34.658292,-4.718841,14.933917,-6.916198
34.691686,-8.572446,9.724397,-5.326092
34.725233,-5.629119,3.855251,-4.807729
34.758117,-5.577791,-0.007183,-3.191585
34.791677,-7.675037,-0.583458,-1.560477
34.825169,-7.835903,1.074586,-3.327161
34.857960,-8.143719,1.478023,-4.495573
34.891684,-7.402986,2.065372,-7.252745
34.925219,-9.667383,1.700094,-9.382463
34.957945,-11.263176,0.723673,-11.848729
34.991999,-12.047604,2.799969,-11.618428
35.025222,-8.624971,0.687011,-9.104277
35.058474,-6.259265,0.559216,-9.204089
35.091801,-5.158641,6.079694,-8.049444
35.124638,-4.751463,8.492686,2.177903
35.158348,1.579481,12.285985,3.271943
35.191910,8.469940,10.783570,5.599340
35.225281,5.542924,11.016115,3.167193
35.258510,2.112509,12.643632,-1.081470
35.291676,-6.042133,14.206054,-0.899953
35.325112,-11.713751,28.629240,-4.689062
35.358637,-10.391805,37.258550,-5.678950
35.391683,-7.851316,40.251558,-5.838020
35.425223,-11.444094,35.064485,-15.851228
35.458722,-10.746758,25.638326,-20.783759
35.491942,0.951729,15.028791,-18.751458
35.525319,14.759284,12.903412,-16.720055
35.558717,20.244895,10.689744,-13.945825
35.592405,18.104402,15.353217,-3.779532
35.625138,9.739511,11.335753,4.988797
35.658460,19.380857,12.574646,0.515969
35.691999,-7.215184,13.052606,5.232565
35.725130,-14.717384,11.499761,10.874403
35.759474,-22.259388,13.533708,6.868611
35.792806,-30.129261,16.217105,5.072148
35.824593,-24.971667,22.429383,-6.740517
35.857945,-14.178968,23.027805,-8.469791
35.892071,-15.714006,6.951513,-10.287055
35.924978,-8.211657,-1.167514,-16.115199
35.958532,5.204582,-4.772712,-16.233117
35.992520,9.225039,-9.447857,-16.261100
36.025032,12.524815,-0.639424,-7.577470
36.058977,5.017678,1.639937,-8.146712
36.091998,-17.314886,20.884170,-1.173650
36.125029,-13.178007,32.552578,10.434603
36.158361,-14.947535,29.946397,7.217878
36.192091,-17.397938,19.224180,2.091111
36.225029,-14.452366,4.556777,-4.424792
36.258831,-3.680019,-5.811683,-10.938750
36.292185,14.855804,0.218628,-23.999287
36.325006,-0.661272,-5.189767,-15.786583
36.359397,4.125357,-4.208708,-5.035934
36.391905,1.966308,5.734916,2.957394
36.425207,-9.570864,17.084436,7.102653
36.458664,-13.078045,22.273155,6.815338
36.492196,-24.214773,26.784591,-1.171555
36.525034,-9.901425,15.725379,0.391915
36.558606,-1.322544,-4.459809,-11.229656
36.592361,5.875730,-3.020393,-22.807680
36.625403,-6.297274,-2.211872,-19.365593
36.658590,2.560989,0.668904,-7.544698
36.691675,8.574840,-0.781136,-5.103573
36.725368,-6.340821,7.426779,9.425710
36.758588,-7.955767,21.957858,8.019515
36.791668,-6.944480,33.351821,3.234383
36.824599,-24.068721,29.878160,0.707063
36.858150,-15.603569,9.294772,-0.061054
36.891672,4.109046,-9.687884,-15.333314
36.925080,4.601221,-1.649514,-16.580588
36.958417,3.325665,1.107059,-10.721767
36.991744,8.368333,-0.024841,-5.377419
37.025686,2.468360,5.209520,1.403501
37.058346,-11.148400,12.864804,9.974301
37.091679,-20.953903,31.606985,2.951857
37.125635,-21.005829,29.467539,-1.753516
37.158420,-15.475625,17.440137,-4.272456
37.192254,-2.827354,-11.552286,-15.162721
37.225530,2.887959,-7.560860,-22.868136
37.258526,-6.983088,-4.851724,-16.773927
37.292155,10.052564,1.933985,-3.381781
37.325119,5.893089,3.073516,-4.585509
37.358406,-6.149278,5.400764,6.333937
37.391930,-8.163621,19.897723,3.982897
37.424974,-14.725315,34.017433,5.316365
37.458504,-17.916151,29.347227,-1.709970
37.491870,-8.825642,5.416177,-4.504402
37.525059,-6.443775,-4.525801,-6.544784
37.558577,10.897748,-5.799263,-8.105261
37.591821,2.389948,-0.205609,-9.093054
37.625005,0.641070,-0.557270,-3.296634
37.658109,5.477231,2.135106,-3.003484
37.691894,-6.313735,10.413802,7.171788
37.724999,-12.899821,18.143309,5.784298
37.757999,-31.674773,35.567136,-1.303240
37.791485,-15.904052,20.584435,-3.148787
37.825135,-7.912670,-1.689918,-11.688162
37.858171,-1.094189,-11.598974,-22.746925
37.891879,-1.127709,-2.713326,-18.239829
37.924630,5.969556,-2.185086,-12.684634
37.958072,10.334043,1.094489,-3.507182
37.991877,-2.107422,7.972827,8.758452
38.024595,-3.640963,10.076507,10.063787
38.058297,-5.033091,27.667634,8.739747
38.092458,-24.447168,38.310540,-1.310573
38.124917,-16.851592,21.412409,-2.200200
38.157974,-5.863310,3.000491,-10.151179
38.192256,1.572298,-11.354458,-17.558654
38.225033,-3.562849,-1.332720,-14.472119
38.258468,6.696223,2.475244,-9.190022
38.291525,7.944694,3.050920,-5.237353
38.324939,-5.293769,5.771579,4.801144
38.357930,-10.438942,14.711997,6.129674
38.391665,-21.652586,33.833223,2.163388
38.424590,-20.976350,27.422968,-0.929881
38.458282,-13.741562,14.527487,-2.943626
38.491663,-2.554405,-9.219053,-10.829660
38.524928,11.287268,-4.794410,-22.134137
38.558347,-0.596327,-5.868099,-18.344729
38.591807,7.410019,0.177776,-4.961861
38.624953,9.045766,0.748813,-5.060625
38.657947,-1.052140,7.182712,7.268756
38.691806,-6.283208,18.909631,8.174545
38.725032,-11.078367,36.196085,8.375067
38.758020,-18.424040,35.006423,0.403288
38.791928,-12.392232,8.024004,-2.371691
38.825037,-2.246440,-3.823976,-10.991274
38.858412,10.239618,-3.862135,-15.014126
38.891863,2.183291,-2.273974,-11.797551
38.925006,5.587668,-0.771709,-3.985740
38.957971,4.657337,-0.142161,-2.637607
38.991925,-10.062890,9.396081,10.306209
39.025077,-8.163322,18.070882,5.463913
39.058346,-24.916000,35.770051,-1.771922
39.091871,-22.728669,24.076652,-3.637072
39.124775,-7.457456,9.881822,-3.822479
39.157927,5.758111,-12.331477,-17.867368
39.192261,-5.534245,-4.521312,-17.776684
39.225037,-7.337892,-3.050920,-12.332524
39.258902,14.654384,3.460792,-2.416734
39.292161,7.090083,7.482447,-1.210163
39.325030,-9.453544,10.393900,4.958868
39.358610,-11.465942,20.253724,6.791246
39.391924,-17.090571,33.656345,3.990828
39.425031,-19.892785,24.752889,1.587412
39.458590,-12.313520,9.484370,-3.746311
39.491866,3.790755,-3.916455,-13.134461
39.525045,11.054573,-6.909314,-15.882653
39.558836,0.968489,-2.215015,-10.974066
39.591713,6.080591,0.502052,-2.720958
39.625138,6.080741,0.767070,1.577386
39.658285,-0.612040,6.548824,10.935757
39.692175,-15.267022,21.214731,8.187265
39.725012,-22.724479,30.185526,0.672944
39.758186,-19.114791,29.106601,-3.798686
39.791971,-11.970239,13.373889,-4.416712
39.825055,-5.599789,-5.436528,-11.343833
39.861501,8.410682,-1.458271,-22.519617
39.891332,0.395806,-1.674205,-17.843425
39.924962,10.567336,-2.613664,-11.165908
39.958438,8.394520,-2.557548,-4.090789
39.991292,-2.496793,14.080354,3.142203
40.025028,-10.181257,28.862533,11.848429
40.059038,-5.974794,29.577826,6.345460
40.091750,-23.436929,32.954669,2.932553
40.125016,-20.236964,9.343406,1.318654
40.159011,5.286736,-5.629268,-14.577168
40.191799,5.231517,-9.846805,-18.203765
40.225012,0.537218,1.179486,-15.235747
40.258536,12.408842,5.980331,-8.638588
40.291233,4.574735,2.776026,-0.447582
40.325020,-7.911772,15.585163,1.984265
40.358252,-20.014295,18.898258,4.816109
40.391289,-13.249835,27.523229,-0.474518
40.425012,-21.055361,23.414632,-1.860361
40.458554,-12.030694,-0.594232,-3.793598
40.491697,12.118086,-9.766896,-18.216485
40.524606,7.981057,-3.912714,-22.380001
40.558062,-3.083692,-2.620248,-10.709946
40.591806,13.347552,1.104215,-1.621531
40.625013,5.768137,3.133224,0.961157
40.658234,-15.862302,17.909118,3.463636
40.692291,-14.405977,29.793462,9.404910
40.724960,-10.308603,25.085545,4.629205
40.758463,-21.560705,18.437657,-0.872418
40.792108,-15.133840,-0.339091,-3.384325
40.824620,-0.490230,-3.705608,-7.105047
40.857979,15.663726,-1.538329,-12.845799
40.891883,8.261338,1.573196,-7.890523
40.925032,10.262064,2.982234,-4.876115
40.958862,3.171832,4.202273,-0.835906
40.991739,-14.297037,14.906682,4.433921
41.025098,-24.805862,21.170287,6.341120
41.058539,-21.604102,29.669258,-0.623263
41.091647,-14.641814,20.873246,-2.799820
41.125147,-11.188803,1.720295,-6.586834
41.158818,5.270275,-8.085059,-18.929982
41.191336,2.548719,-6.184444,-19.510896
41.225013,-1.048548,-5.466008,-11.554530
41.258723,11.263924,3.166894,-5.611162
41.291699,4.868633,5.536639,-2.681153
41.324849,-11.257938,23.349836,3.600260
41.358566,-10.123345,24.809454,12.498029
41.392045,-12.650964,29.682277,3.537410
41.424963,-19.888146,19.348833,2.071208
41.458529,-7.120610,3.578113,-8.382699
41.491707,4.308669,-5.240496,-13.898238
41.525137,8.576636,-2.198405,-16.900525
41.558210,2.274872,1.352323,-16.846354
41.591774,0.762281,-0.160417,-4.608703
41.625169,-1.305635,3.370408,-0.133631
41.658597,-13.668686,17.264456,7.831414
41.692515,-12.992749,21.793400,6.078496
41.724963,-19.899070,31.481734,1.421608
41.758483,-14.355996,12.030395,0.854012
41.791681,-9.093203,5.208173,-11.463248
41.824628,-0.704369,-0.190495,-16.747889
41.858934,11.495721,-4.599276,-24.111070
41.891642,-0.508786,-3.721022,-14.755992
41.925001,7.987192,-3.918849,-4.428084
41.958899,1.574094,13.190577,-0.196780
41.991675,-6.311491,19.698698,4.665568
42.024964,-8.123068,28.949775,8.933983
42.058770,-21.124347,28.226700,3.310701
42.091643,-25.842289,20.630974,0.849523
42.125007,-16.643887,8.589655,-5.098784
42.158556,11.677687,-4.694299,-9.081382
42.191672,22.602969,-4.222475,-18.483747
42.225010,0.984052,2.861023,-7.644510
42.258891,3.312197,-0.575826,3.100003
42.291629,0.495767,7.743274,3.836845
42.325012,-10.042688,14.975219,8.748576
42.358863,-19.971497,35.875999,3.517058
42.391893,-23.017480,32.347867,-1.501068
42.425003,-12.853581,16.560386,-1.886848
42.458908,-1.478772,-12.887999,-17.944733
42.491270,-1.599683,-1.827290,-23.263792
42.524969,3.068279,-1.387789,-15.771469
42.558640,7.587945,0.339839,-13.503929
42.591708,4.550792,-1.907798,-5.293320
42.625006,3.658022,5.297360,3.916904
42.658884,-2.729338,23.040225,0.972230
42.691856,-23.579239,40.563115,-0.493373
42.724977,-17.410059,22.618681,1.273013
42.758864,-2.359869,8.142073,6.883426
42.791797,3.648145,0.714545,-1.246526
42.825089,-2.399525,-1.447496,-3.604749
42.858888,-7.199023,-0.738638,-0.950083
42.891239,-5.411239,-0.090384,-0.597824
42.925027,-5.667876,1.810829,-2.282504
42.958865,-2.752981,14.851314,-6.078048
42.991879,-1.549852,27.635461,-4.706271
43.025127,-5.423060,28.107285,0.337594
43.058239,-2.968766,21.553223,2.997648
43.091702,-1.259994,16.441420,2.908760
43.125628,-2.751784,9.523576,2.082581
43.158542,-3.628093,3.095813,1.051092
43.191746,-2.111462,1.579332,2.567873
43.225519,-0.070781,1.447945,2.487215
43.258623,1.462161,0.775749,1.799157
43.291839,1.574842,3.952070,1.169310
43.325530,2.696117,8.542068,0.871521
43.358566,4.515775,14.560408,1.522018
43.392052,5.983922,19.241240,2.629376
43.425422,3.985291,19.403902,4.035571
43.458412,0.863290,10.453757,3.534566
43.491678,0.752255,7.910276,2.472101
43.525382,1.193851,8.225274,2.284898
43.558674,0.431870,7.749709,2.249283
43.591678,0.708260,9.044120,2.230727
43.625916,2.309440,9.444715,2.355380
43.658306,2.683098,8.870984,3.184851
43.691674,2.668134,7.975520,3.164050
43.725918,4.142715,7.788616,2.768395
43.758271,4.632497,7.458055,3.133823
43.791921,5.745242,9.035890,3.577514
43.825793,5.692268,10.776686,4.151844
43.858367,3.995167,10.825620,3.695582
43.891809,2.154410,9.949011,2.569519
43.925775,-0.199175,10.740772,0.170743
43.958520,0.500406,11.162017,-1.931142
43.991930,-0.294946,10.371453,-2.989118
44.025737,-4.287420,10.669093,-4.896617
44.058518,-6.454549,8.407988,-3.668198
44.091810,-7.535271,7.574327,-3.659967
44.125614,-9.001173,2.919684,-5.468103
44.157986,-8.553740,2.811192,-7.933321
44.191935,-9.961432,1.757556,-9.180744
44.225784,-12.533644,0.860447,-8.615543
44.258428,-13.154663,3.489225,-10.370705
44.291817,-11.403541,3.785667,-10.508975
44.325741,-8.620182,2.753879,-8.740345
44.358460,-6.387659,2.760314,-5.939029
44.391966,-5.312025,4.539120,-3.132775
44.425572,-1.928449,5.386996,-0.208602
44.458169,-0.015862,6.391849,-0.045641
44.491818,0.593783,10.621058,2.381567
44.525769,7.250949,11.460704,2.230129
44.557973,4.450681,8.912734,0.099363
44.591937,-0.239129,9.546921,0.225811
44.625485,-2.130916,12.312322,-2.711081
44.658013,-5.053742,17.637666,-6.179655
44.691700,-10.771000,22.376110,-8.086106
44.725206,-13.211377,30.231018,-12.238099
44.758380,-14.005532,35.360179,-13.218261
44.791939,-9.195858,33.662929,-19.098480
44.825217,-4.598378,20.964378,-24.050614
44.858874,1.201184,15.772516,-26.429788
44.891999,8.644125,13.475347,-23.974147
44.925173,12.266083,10.247848,-14.978361
44.958540,10.839088,10.944885,-8.198937
44.991303,8.873827,12.723092,-0.626256
45.025515,10.572723,15.283483,1.030292
45.058049,2.921030,16.906361,4.101863
45.091799,-8.354266,12.995442,11.763133
45.125595,-9.797722,9.712127,10.518253
45.157971,-16.691025,17.019491,6.318374
45.191967,-26.993493,16.929555,4.852322
45.225573,-22.263728,19.431286,-3.651288
45.258357,-10.160457,16.173410,-5.379215
45.291799,-12.163278,11.151392,-13.714776
45.325505,-10.428767,-0.792659,-15.381200
45.358005,13.098846,-3.216874,-20.958093
45.391929,4.294004,-8.513187,-13.562589
45.425579,9.200348,-2.160395,-9.644039
45.457985,0.997819,5.537537,-10.339280
45.492313,-14.676681,24.686148,-3.334943
45.525626,-5.172857,26.646321,10.306359
45.558340,-7.812260,25.733499,6.668389
45.591797,-18.421795,22.548199,8.324188
45.625528,-19.921517,3.252489,-1.773419
45.658466,-10.690043,0.331010,-8.783293
45.691265,11.679931,-3.170335,-12.502070
45.725107,9.885563,-1.907050,-20.478637
45.758465,-2.464919,-3.286458,-11.613041
45.791783,1.478472,2.052952,-2.251528
45.827932,-5.272071,20.386008,3.351104
45.858364,-17.684055,28.598563,8.343642
45.891711,-23.396226,28.482590,3.648594
45.925363,-16.590165,13.868609,-1.651460
45.957981,-16.304647,0.764227,-8.591600
45.991920,5.515390,-6.557204,-17.853152
46.025264,-2.245692,-5.580934,-18.300883
46.058309,0.837701,-3.195775,-9.074049
46.091673,13.665693,3.383726,-8.678992
46.125599,-1.235602,14.062097,-4.878510
46.157938,-21.457901,35.556661,5.020521
46.191313,-8.401703,18.934322,11.962607
46.225506,-21.459397,26.715905,6.115608
46.258066,-22.327177,4.312261,4.106352
46.291805,-7.044741,0.127197,-7.980159
46.325506,15.300842,-5.996193,-20.815334
46.358435,4.348474,-0.539762,-13.901381
46.392172,6.372844,1.861109,-8.289172
46.425499,1.151054,5.039077,1.065458
46.458038,-8.087154,16.949907,7.665310
46.491283,-15.669412,21.019447,9.620844
46.525447,-25.101108,34.393935,-0.335799
46.558204,-16.684590,14.980007,-0.821240
46.592627,-10.172578,-0.246462,-16.679502
46.624797,-2.585531,-8.600279,-19.361852
46.658424,3.078754,-5.133202,-24.293485
46.691471,-0.459254,-0.304823,-12.077383
46.725103,10.384323,2.821069,-7.062249
46.758345,2.801915,11.767023,1.207319
46.791829,-7.449076,19.986761,9.505170
46.825080,-6.241607,29.168104,10.798235
46.858338,-21.783673,35.225950,1.896275
46.892197,-19.693311,4.545554,1.263286
46.924966,-8.496427,-3.795394,-10.130528
46.958045,7.959209,-4.827033,-17.880087
46.992978,3.291097,0.056266,-14.278481
47.025015,9.036040,4.476718,-9.446211
47.058564,6.944630,2.304501,-0.445487
47.092270,-6.724056,21.345818,5.827994
47.125012,-17.964037,21.788612,6.364464
47.158581,-28.115366,30.392931,1.029543
47.192467,-15.716550,14.307063,-2.657808
47.225008,-6.073858,-0.156377,-11.828676
47.258926,2.592863,-8.964959,-19.231812
47.292171,-1.260143,-5.892939,-17.053161
47.325098,3.098656,-1.210312,-11.029284
47.358860,8.833573,2.833938,-5.398519
47.391776,-5.988561,12.810035,3.045234
47.427892,-14.957710,22.122615,3.691542
47.457954,-6.241907,20.534604,7.863587
47.491883,-23.152757,28.549480,-1.503014
47.525774,-17.721167,9.754176,-3.714587
47.558454,-8.572296,-1.114840,-6.897492
47.592389,17.424874,-9.300758,-16.899178
47.625509,1.855273,-1.159583,-11.075523
47.657989,-1.779105,0.859250,-5.400764
47.692194,3.497006,1.848539,1.013831
47.725196,-0.731754,12.510150,4.205266
47.760328,-15.146410,23.681445,3.180960
47.791713,-28.832604,30.727533,-6.028665
47.825015,-16.244490,19.550252,-7.134826
47.858056,-9.941978,-0.212194,-8.127857
47.891840,1.295459,-13.517247,-16.945418
47.925055,4.334857,-5.968060,-18.825382
47.957915,2.740561,-3.527533,-9.497389
47.992064,8.931739,5.473191,-7.428575
48.024717,0.156975,7.403884,1.257001
48.058490,-11.446788,20.786303,2.704946
48.091903,-15.306678,24.974510,9.171467
48.125375,-22.912580,31.227789,-0.118368
48.157979,-22.541016,15.359651,-1.748279
48.192269,-11.740986,-4.003398,-6.850056
48.225133,18.704321,-7.658127,-16.193761
48.258537,9.671274,-4.219931,-13.088071
48.291842,3.944588,-0.768417,-6.325407
48.324808,6.573815,1.172901,-1.585018
48.358197,3.791952,2.820321,11.021203
48.392271,-9.343556,21.255583,4.142566
48.425033,-29.930235,34.527566,-1.015926
48.457943,-25.409372,31.775932,-4.389177
48.491883,-13.506473,9.180894,-6.789749
48.524965,-7.091130,-9.946767,-14.184805
48.558977,2.218606,-6.987577,-19.703487
48.592001,5.763648,-2.485869,-11.168152
48.625184,14.802231,-0.204412,-4.415963
48.658466,4.394564,3.651288,-1.692761
48.691949,-6.352343,8.548204,10.517655
48.725196,-2.155307,26.661285,4.347277
48.758955,-13.916195,36.712353,4.772862
48.792058,-23.224436,27.079388,-0.703621
48.824970,-11.699834,5.728931,-5.785945
48.858415,-1.152251,-10.950721,-18.015215
48.892343,-0.124802,-6.304308,-16.242395
48.925024,4.906942,-1.353072,-6.680660
48.958549,10.637369,2.117298,-1.765188
48.992282,1.474432,6.572019,5.466158
49.024546,-11.129245,13.228736,6.260762
49.058729,-18.966944,24.368606,2.338919
49.092547,-26.009291,29.940262,-4.946298
49.124972,-15.043007,18.915018,-6.446169
49.158408,-5.776367,-1.862456,-14.571033
49.192332,10.894156,-10.465878,-21.354647
49.224713,-2.343558,-4.957970,-14.836350
49.257965,1.940270,0.049382,-10.392703
49.292181,6.866816,4.555431,-3.299926
49.325023,-1.363547,5.679848,8.799155
49.358079,-0.990786,13.213472,7.896509
49.392628,-11.722729,34.280506,5.657551
49.425017,-25.085695,34.440623,-0.897109
49.457972,-18.986547,16.829295,-2.726195
49.492174,-0.001646,-8.643227,-11.518616
49.524612,10.187243,-10.136813,-22.587855
49.558161,-7.060154,-1.411432,-13.245496
49.592281,10.127835,1.519774,-6.886419
49.625024,6.868013,4.234895,-3.813800
49.658561,-4.206164,17.350501,4.534331
49.692218,-17.370404,18.475217,2.907862
49.725139,-27.280208,23.071650,-2.537047
49.758349,-23.564424,21.418844,-3.405125
49.791692,-14.353901,0.394160,-8.382100
49.825017,11.799047,-14.341630,-17.537256
49.858084,8.581574,-4.133587,-19.619238
49.892175,-5.331479,-1.136837,-6.467269
49.924658,11.621421,2.964576,1.474881
49.958549,8.749174,3.271644,0.849822
49.992325,-9.348793,15.088349,8.410532
50.024754,-12.653209,30.011791,6.143591
50.058336,-22.963458,39.958857,-0.997819
50.092185,-16.984474,16.340860,-4.062207
50.124577,-10.850909,-2.402368,-8.048097
50.158404,2.930009,-11.000103,-13.538796
50.192279,2.053550,-4.899609,-8.525308
50.225018,6.865020,0.239429,-4.663622
50.258713,7.950679,1.288725,-2.317221
50.292177,-5.438623,10.924833,4.872075
50.324599,-19.217147,17.932463,3.682264
50.358094,-17.665200,19.329679,0.712899
50.391935,-24.713533,27.121437,-4.808626
50.425019,-16.759112,11.765377,-2.323057
50.458881,1.676151,-4.383940,-8.432530
50.491832,12.460170,-8.780001,-19.761848
50.525033,-5.635703,-5.490549,-12.212810
50.558066,0.356749,1.135940,-7.827374
50.592003,8.288424,-2.729787,-0.613237
50.624695,2.651673,6.995359,4.786330
50.658034,-6.586983,18.369270,7.566995
50.691434,-14.583154,38.149225,7.978214
50.725224,-17.849710,31.923330,0.268459
50.757940,-17.475004,11.713751,-3.292145
50.791937,-10.101198,-7.607398,-13.540741
50.825020,12.122575,-3.134720,-15.278096
50.859527,6.535207,0.863589,-10.611032
50.891632,3.933066,2.562935,-3.161656
50.925048,1.262538,-1.466800,0.631793
50.959380,-8.162424,17.539500,7.541256
50.991586,-13.216615,26.442208,5.814077
51.025019,-28.054760,35.802524,-1.960622
51.057968,-23.715414,20.559744,-2.731732
51.091707,-4.599575,-3.354995,-12.499376
51.125950,10.716380,-14.451768,-22.973784
51.158319,-2.106374,-2.732929,-14.538411
51.191746,1.734212,2.128372,-9.401917
51.225507,9.862967,1.317756,-0.875112
51.258041,2.589571,4.321389,3.748257
51.291690,-8.046002,7.918955,7.978812
51.325925,-10.338382,32.276936,5.615501
51.358454,-21.819139,43.036863,-0.109988
51.391984,-10.920793,16.588968,-1.413527
51.425486,-7.860744,-0.642866,-8.550748
51.458008,9.198402,-6.035399,-16.256162
51.491905,7.134227,-5.825750,-11.576378
51.525490,8.922610,-1.979327,-13.817431
51.558360,-1.232609,-3.169288,-0.990936
51.592402,-5.908203,1.072042,8.468893
51.625226,2.489759,8.623773,4.895719
51.658507,-1.565116,31.163443,-4.372118
51.692817,-23.123876,28.776339,1.324939
51.724967,-3.646799,20.993559,-1.091346
51.758614,0.387426,-1.394972,-12.364548
51.792409,-8.001708,-4.450232,-6.994760
51.824961,-11.525500,-0.787720,-5.959979
51.857942,-8.749025,-2.157851,-5.930500
51.892845,-5.612508,-3.537410,-5.211166
51.925020,-3.254584,-1.795566,-3.434306
51.958270,-4.358949,15.111543,-4.415664
51.992351,-5.014984,31.160450,-2.762409
52.024890,-1.201334,27.733327,2.479434
52.058566,4.190601,19.539628,2.267091
52.092381,2.481230,12.144423,1.510646
52.125022,-0.319787,5.693316,3.069925
52.158852,-0.195733,0.839647,2.849052
52.192538,2.318717,2.495146,3.435652
52.225031,0.850271,3.133823,4.632497
52.258859,1.304737,8.845095,4.419555
52.292173,3.499700,10.063488,4.750565
52.324583,4.919362,10.385520,4.854567
52.358569,5.130209,20.877136,9.052800
52.391963,4.541215,16.516242,9.246737
52.425022,0.483347,11.792163,8.349777
52.458852,-0.966693,12.028300,6.228289
52.491688,-1.509748,11.338446,3.564944
52.525129,-0.961905,11.957818,-1.661186
52.558432,-3.646948,10.010515,-5.033091
52.591763,-7.091879,6.509319,-4.548547
52.625129,-6.743659,4.365384,-5.716211
52.657940,-5.707831,3.287356,-5.114796
52.691671,-5.741201,1.884005,-3.671340
52.725128,-4.713304,2.000427,-4.448286
52.758615,-6.999549,2.055944,-5.030697
52.791742,-9.282053,2.522382,-8.110199
52.824642,-11.254197,3.961049,-11.943453
52.858609,-15.168108,5.976290,-13.680807
52.891929,-17.932014,5.008250,-11.283976
52.925025,-13.766852,3.503291,-8.580826
52.958848,-11.083604,0.810017,-8.467546
52.991759,-10.577212,1.282440,-6.487920
53.024998,-6.179505,2.504275,-3.010517
53.058845,-3.810209,4.102012,-0.570738
53.091756,2.528816,5.567466,0.134230
53.125133,0.893967,7.798493,-1.272414
53.158860,1.774466,6.304757,0.725170
53.191811,3.737183,6.265101,-2.623989
53.225002,0.865834,5.748235,-2.746098
53.258229,-1.230813,4.614689,-3.135469
53.291710,-0.893967,6.370600,-4.063854
53.324702,-1.175146,12.917329,-5.723992
53.358795,-7.652291,21.064040,-8.696350
53.391699,-9.152163,24.018890,-3.917952
53.424954,-5.151159,31.352292,-1.992496
53.458752,-6.225895,37.908449,-6.335583
53.491345,-6.353989,34.372087,-11.522956
53.524955,-6.384666,25.989837,-20.642496
53.558180,0.723973,18.594932,-19.737306
53.592038,7.871369,14.784424,-19.536934
53.625001,8.977529,10.629288,-17.891610
53.658662,15.944007,8.098676,-7.687009
53.691885,15.277048,11.201672,-4.476269
53.724960,8.774314,13.419979,4.045747
53.758199,6.986530,18.632792,0.969986
53.791909,-4.871327,16.334276,4.787527
53.824680,-18.442446,12.504165,11.188354
53.858502,-26.319650,15.687669,4.668860
53.892063,-25.130588,22.052881,-3.262665
53.924978,-26.613848,20.661351,-2.270682
53.958615,-15.448090,10.552821,-14.205006
53.991913,-7.783229,-2.802513,-15.160177
54.025235,4.360296,-3.894158,-21.309605
54.058754,-3.197570,-6.387060,-15.986057
54.091914,-0.157574,-8.380155,-4.568599
54.125392,11.755950,1.186220,-2.503227
54.158918,1.283338,14.261721,-5.235707
54.192119,-12.412134,26.323391,3.699772
54.225224,-9.453843,26.710967,9.435736
54.258557,-25.080607,40.574039,5.844754
54.291632,-20.500036,11.763582,6.088223
54.325526,-1.167664,-0.741481,-15.587408
54.358128,5.130658,-6.808604,-22.993387
54.391744,-2.654816,-4.106053,-17.427418
54.426350,10.868867,-2.296271,-10.938899
54.458251,5.017378,0.873915,-3.200713
54.491678,-1.752169,12.148613,1.204775
54.525986,-12.048053,15.004698,3.236178
54.560518,-12.660691,28.958155,-0.163709
54.591668,-20.289040,33.882156,4.656290
54.625366,-17.583196,6.058145,2.072854
54.657959,-10.765463,-8.368183,-11.219480
54.691792,1.886100,-5.379664,-16.797421
54.724960,5.267132,-2.073602,-18.671549
54.758369,7.146947,0.654987,-15.424147
54.792390,6.371946,2.498139,-6.958397
54.825020,-2.714224,11.779743,0.565800
54.858366,-12.265035,26.651558,6.413248
54.891898,-7.189895,28.354944,9.716167
54.925331,-21.438447,26.236449,4.898263
54.958584,-18.126998,8.184272,0.716790
54.992048,-6.474302,2.408803,-9.700604
55.025275,9.301806,-8.696201,-16.262597
55.058474,-2.546175,-5.843707,-11.648506
55.091883,-0.669054,-2.822416,-9.587175
55.125157,2.832292,4.801593,-2.708687
55.158513,-4.792166,14.236880,1.457522
55.193378,-10.266254,21.103995,6.084482
55.224941,-24.732837,31.789699,-0.421843
55.258335,-19.406146,25.131036,-2.023472
55.291865,-14.488879,11.342786,-4.158877
55.325024,-2.934947,-13.511411,-14.643011
55.358081,0.037261,-7.699728,-21.774246
55.392423,-12.222986,-2.448159,-14.613083
55.425031,14.487682,0.964598,-4.842296
55.458581,11.602117,1.506156,-6.233527
55.492673,-1.944311,9.154557,2.638355
55.525025,-6.632475,18.410123,5.705736
55.558846,-1.794069,33.054930,6.114411
55.592035,-19.158487,36.909882,0.142610
55.624557,-25.080906,10.423230,0.283573
55.658573,-13.013400,-1.756359,-6.228588
55.691804,5.122428,-5.561929,-14.851314
55.724974,0.695241,-2.091410,-17.243357
55.757956,0.765124,-0.982556,-11.705371
55.792119,7.282524,-0.363932,-4.607506
55.825258,3.726858,9.647780,6.901084
55.858659,-5.664285,18.498562,6.594316
55.892461,-26.710817,35.134817,5.688527
55.925098,-18.751907,28.884381,1.380606
55.957954,-8.762792,9.295371,-3.342575
55.991729,-4.288318,-9.653466,-15.603420
56.025231,-1.424451,-3.234233,-20.866212
56.058040,-2.051156,-2.050857,-13.370597
56.091974,8.884601,-2.453695,-10.092669
56.125255,4.249710,2.785903,-3.570930
56.158045,-8.986209,9.361812,4.834515
56.193091,-8.470838,21.555917,1.334217
56.225015,-5.290626,22.335108,8.264930
56.258301,-29.840899,33.112692,-0.390867
56.291682,-22.101964,13.975903,1.557633
56.325162,2.708687,-3.440441,-7.700626
56.358469,16.263644,-1.813822,-15.707122
56.391821,6.292636,1.374470,-15.042109
56.425484,5.783401,-0.385630,-7.336694
56.458394,4.421351,-3.297981,2.441724
56.491681,-0.319188,9.564728,5.993200
56.525502,-21.090976,20.306847,5.187672
56.557974,-28.842481,27.195810,-0.504446
56.591677,-20.378227,28.424827,-5.173606
56.625199,-9.647780,1.148360,-8.624073
56.658359,3.311149,-16.035140,-16.637452
56.691801,3.421287,-7.002093,-20.044523
56.725490,-2.358672,-3.574671,-7.031572
56.758765,13.136406,5.703641,-1.833425
56.791663,6.152270,2.767497,-0.107144
56.825106,-7.719481,9.959337,2.709734
56.858361,-11.031229,25.678430,5.439222
56.891667,-18.717639,38.360969,4.702979
56.924900,-19.372327,22.301737,0.323079
56.958002,-14.059104,3.620461,-2.692526
56.991939,3.094317,-7.717985,-10.517804
57.025319,4.550343,-3.891315,-13.904823
57.058473,-4.711209,0.121360,-6.527725
57.091802,6.863224,-2.606780,-2.590469
57.125285,4.526998,4.581618,2.535101
57.158471,-5.666230,9.386803,4.947944
57.191754,-12.373077,19.254408,4.179976
57.225567,-27.120839,35.711541,-3.394201
57.258358,-16.501277,21.124496,-3.950125
57.291802,-9.490356,0.047586,-9.353133
57.325487,-6.464426,-15.482359,-17.616417
57.358406,-4.341441,1.290072,-14.227154
57.391921,8.546857,-2.036940,-9.453244
57.425481,5.297211,1.923510,-3.529329
57.458039,-3.947731,4.513830,3.669694
57.491816,-2.101137,4.173093,7.498608
57.526658,-6.167983,31.118550,5.676855
57.558642,-27.646834,39.496011,-0.978216
57.591676,-15.518871,22.455720,-2.206785
57.625211,-6.699215,-4.868184,-14.358540
57.658550,-0.178524,-9.288637,-11.325128
57.691802,3.981700,-3.214779,-8.316107
57.725202,6.215719,-0.305272,-2.178951
57.758350,2.076296,-0.729958,0.875112
57.791308,-3.300974,4.115031,9.614709
57.825486,-13.786605,20.839576,-0.817350
57.861601,-26.453581,29.340044,-7.518660
57.891621,-20.354134,31.043280,-8.474879
57.925106,-12.374873,7.351958,-6.541641
57.958455,-0.810915,-13.049763,-13.508718
57.992500,5.074392,-12.831134,-7.607997
58.025472,12.559084,-2.080785,-7.900549
58.058560,-0.581363,-1.663880,-1.608811
58.092279,-8.441808,-1.656398,0.068985
58.125351,4.424942,1.953738,5.170164
58.158555,8.964660,20.114257,-10.412306
58.191953,-8.924705,42.535559,-6.939991
58.225282,-15.497921,27.599995,6.690087
58.258471,-5.170463,13.693377,5.106865
58.292032,1.544614,2.990165,-0.248557
58.325269,-3.203556,-2.631621,-4.514877
58.358568,-8.134890,1.984265,-1.643678
58.392793,-6.462480,3.317734,-1.833575
58.425031,-4.389477,4.047692,-2.264547
58.458625,-2.658407,6.322863,-3.210889
58.492702,-0.785177,20.551813,-1.990251
58.524963,-1.542519,27.684244,1.778506
58.558290,-3.938004,22.499416,4.140171
58.592555,-1.442109,16.430347,4.085103
58.625030,-1.404549,11.609300,3.635725
58.658943,-1.238295,6.505577,3.863332
58.692027,2.195561,1.754564,3.438496
58.725037,2.671875,1.699794,3.046581
58.758938,1.748129,1.718949,2.227884
58.791778,1.476377,4.820448,1.545063
58.825212,3.639466,7.492622,2.304651
58.858580,4.837059,9.334877,3.142053
58.891701,6.404718,20.986825,1.699345
58.924980,4.820299,18.142112,3.706805
58.958125,1.542071,11.949887,2.726494
58.991762,0.057912,14.355547,0.782483
59.025269,-0.198875,14.339535,0.197978
59.058353,0.413015,12.437574,1.388387
59.091730,-2.401769,10.061244,-0.889029
59.125347,-3.640364,9.838425,-2.366454
59.158363,-4.561566,7.143805,-3.703813
59.191965,-4.263178,5.403158,-5.244686
59.225077,-4.630402,3.797788,-5.403457
59.258336,-5.301700,3.261917,-5.410490
59.291442,-4.885244,3.129633,-9.807748
59.324630,-9.462073,4.117575,-11.303879
59.358304,-14.055663,5.868996,-13.533558
59.391817,-15.623622,6.728695,-14.459100
59.424982,-12.252465,7.880647,-11.337848
59.458471,-10.271342,2.448159,-8.131149
59.491361,-9.960983,3.143849,-6.847512
59.525032,-7.253044,6.074905,-2.844862
59.558514,-1.712963,8.444202,0.134828
59.591816,1.787784,8.790476,5.293470
59.625024,6.007117,13.789149,7.794452
59.658416,5.379963,12.219544,6.781818
59.691888,5.204432,9.996897,6.740068
59.725132,1.810530,14.314545,-0.156676
59.758351,-5.210567,18.038260,-5.328037
59.791926,-16.158894,18.834809,-5.999335
59.825007,-11.554979,31.192174,-10.207145
59.858009,-10.077255,41.018030,-9.781262
59.891871,-12.409291,37.532995,-14.158916
59.925016,-8.519173,27.444217,-19.213107
59.959065,-0.260528,22.523358,-22.216441
59.991976,10.318779,14.492022,-19.694359
60.024964,15.168557,12.127364,-15.749621
60.058054,16.779913,10.461838,-11.636086
60.091916,11.842593,8.116334,5.836225
60.125142,12.645128,7.619370,2.616956
60.157955,10.514362,12.345393,-6.237118
60.191954,-7.556670,16.447406,5.444310
60.224978,-7.715890,10.464531,11.375558
60.258123,-16.873589,15.183372,9.556947
60.292507,-32.047234,17.660112,2.030505
60.325005,-30.253614,17.535909,0.686861
60.358750,-21.874357,27.734225,-8.499121
60.391934,-8.812473,15.314010,-10.106286
60.424985,0.957416,-0.126748,-17.059895
60.458292,8.206569,-5.202337,-20.161544
60.491781,-4.847833,-7.609045,-13.298619
60.525029,7.136472,-6.413697,-12.362453
60.558044,7.681921,-3.847320,-3.934263
60.592233,1.472187,9.167127,-3.351104
60.625049,-8.144617,14.517461,3.097310
60.658510,-8.890287,29.627059,0.002394
60.692583,-19.574944,30.156645,0.325174
60.724977,-20.625587,24.692283,1.045406
60.758391,-18.171891,9.889902,0.886485
60.792249,11.115029,-6.668239,-14.154726
60.824568,10.245005,-8.708920,-20.248935
60.857968,-6.013551,-2.023472,-12.077383
60.892169,6.927720,-0.777545,-6.730341
60.924982,6.140000,5.422312,1.401556
60.958406,-1.500619,12.182133,6.181451
60.992399,-15.843148,24.041935,5.031295
61.025058,-29.219731,37.862658,-0.652294
61.058425,-17.544139,25.676784,-0.909530
61.092401,-10.523341,-6.706548,-8.299347
61.124549,4.384538,-10.477251,-18.071930
61.158417,5.181986,-1.668070,-23.332927
61.192361,3.273140,-1.390333,-9.850397
61.225033,13.872949,-0.576574,-5.451941
61.258566,3.307259,3.458697,-1.278998
61.292153,-8.242034,15.635743,8.987406
61.326040,-2.312283,22.046297,5.613257
61.358339,-14.068233,33.610105,3.885479
61.391956,-24.284057,23.342654,0.221771
61.425032,-14.538112,8.585315,1.221086
61.459293,12.470495,-6.532364,-14.216080
61.491777,8.809929,-3.890118,-18.415660
61.524824,1.872333,-2.311834,-8.487149
61.558505,10.988431,2.611569,-5.433835
61.591948,1.414126,8.392276,1.567510
61.625140,-13.253427,11.466840,6.108425
61.657998,-15.642177,18.277838,5.886355
61.691805,-13.821172,37.611109,-1.140429
61.725528,-22.525453,21.937955,0.877357
61.759259,2.756573,-6.339025,-15.554786
61.791737,5.471694,-8.874126,-26.919270
61.825013,-19.717104,-4.999720,-16.710628
61.858598,4.014621,-1.264633,-9.697910
61.891633,12.259049,3.103894,-4.524754
61.925220,-2.538842,7.814654,5.267132
61.958630,-9.268884,11.879405,2.919534
61.991736,-3.775192,27.296520,7.699728
62.025356,-20.553608,40.611300,0.170892
62.058499,-20.945374,20.343809,0.759288
62.091802,-9.414786,0.292851,-4.071635
62.124855,12.000018,-6.550919,-15.341096
62.158041,7.522701,-2.047265,-18.965597
62.191861,4.074179,-2.751934,-8.490292
62.224924,7.769761,0.112681,-2.679207
62.258591,-1.690516,8.300245,9.665588
62.291641,-9.163236,17.864525,5.195453
62.325225,-23.385601,29.209555,0.924344
62.358796,-24.949669,27.004267,-0.417953
62.391666,-11.673048,19.476778,-0.534225
62.425216,-3.894757,-4.866239,-13.997152
62.458498,4.425989,-8.459166,-22.172895
62.491693,-1.386741,-2.610970,-14.771555
62.525211,14.697481,0.513425,-11.263475
62.558294,8.166315,1.711915,-3.018448
62.591929,-4.415814,5.298258,6.978898
62.625193,-5.659047,8.015176,4.895419
62.658867,-7.364678,36.942504,6.384067
62.691764,-24.076952,41.301154,2.761810
62.725216,-19.991101,21.835600,1.125016
62.758798,0.043546,-1.982320,-10.335090
62.792191,10.114666,-11.694596,-18.087942
62.825139,-1.439715,-0.371713,-15.155838
62.858747,14.310505,0.721578,-3.332249
62.891997,10.574968,2.239556,3.340779
62.925136,-2.572362,11.271256,13.156009
62.958738,-15.193548,16.289383,4.135383
62.992447,-22.938169,32.849769,-2.080336
63.025007,-24.899240,35.190035,-1.697699
63.058184,-18.326023,11.697440,2.235366
63.091784,17.592474,-11.786477,-23.299556
63.125009,3.657124,-3.948180,-22.879958
63.158043,-13.434944,-6.922333,-16.517888
63.192411,11.314354,-2.120889,-8.291117
63.224623,7.550534,0.841293,2.737269
63.257934,-5.997390,13.778823,7.980608
63.292145,-5.766940,30.043814,4.824938
63.324625,-5.401063,39.959006,6.222603
63.358539,-21.014359,28.987635,0.613087
63.391818,-19.089352,8.630507,-3.948778
63.424989,-15.658488,-5.756615,-11.986400
63.458852,3.418892,-2.893945,-14.621912
63.491479,1.651310,3.370558,-15.528598
63.525006,8.837464,4.696993,-10.909569
63.558844,8.810378,0.889927,-5.980031
63.591695,5.113150,3.376543,-7.636429
63.625135,-5.691669,8.884152,-8.015624
63.658844,-15.621377,10.161654,-5.974345
63.691694,-13.551366,7.142308,-6.437041
63.725137,-8.920964,2.806105,-2.562187
63.758835,-9.180146,3.044785,1.042413
63.791763,-8.160928,4.540616,0.927038
63.825135,-5.022317,3.989930,0.435760
63.858824,-0.374706,4.249560,-0.791611
63.891697,1.019218,6.123240,-0.789067
63.925135,0.925242,8.507501,-0.299735
63.958848,-0.195434,12.617145,0.490679
63.991771,-0.856407,14.441592,1.318205
64.025004,-1.308328,14.133776,2.365256
64.058938,-1.583073,12.543072,1.058275
64.091697,-2.115951,11.487042,-0.708559
64.125191,-30.587617,10.630785,-4.007887
64.158844,-5.420068,10.401083,1.033883
64.191767,2.640749,10.952816,-5.242441
64.225366,-3.194877,12.217898,-5.058530
64.258838,-1.739001,11.831370,-2.515947
64.291697,-2.173414,12.558186,-1.335264
64.325151,-4.778698,13.849754,-3.461541
64.358592,-1.450190,9.514448,-5.625378
64.391741,2.072405,6.997005,-4.592542
64.425008,0.049532,6.734382,-5.424706
64.458832,-3.277779,6.736477,-4.011778
64.491299,-1.834174,8.962864,-3.607143
64.524965,-1.652357,10.012011,-3.548782
64.558366,-1.704583,10.055707,-2.794881
64.591894,-2.340416,10.930669,-4.094830
64.625008,-2.369446,9.595255,-2.746996
64.658952,-0.855509,8.960919,-3.635575
64.691697,-1.730022,8.957477,-3.675979
64.725138,-2.689832,7.869573,-3.213283
64.758198,-1.557484,6.937896,-3.291546
64.791782,-0.775450,6.123539,-2.947966
64.825136,-0.812412,7.464340,-4.436913
64.858428,-6.154665,8.328977,-4.040958
64.891678,-4.269463,7.818694,-5.199195
64.925136,-5.204731,7.218177,-6.509019
64.958372,-7.156524,5.427849,-4.081511
64.991740,-7.503247,3.302769,-3.029073
65.025129,-6.061288,6.034651,-3.746760
65.058187,-6.725852,7.849072,-4.879707
65.091829,-9.748639,8.100173,-1.667621
65.124737,-8.163322,7.331906,-1.076681
65.158997,-4.551989,8.244578,-1.069498
65.191706,-3.747209,9.077640,-1.718350
65.225006,-2.640899,9.082130,-2.304202
65.258935,-3.254734,9.605132,-2.064025
65.291645,-2.562935,9.522978,-2.029607
65.325002,-3.193829,9.410746,-2.427059
65.359019,-4.039162,8.853775,-2.969515
65.391710,-3.289900,8.858414,-3.889220
65.425111,-3.103146,8.671659,-4.123860
65.459844,-3.637371,7.098463,-3.707254
65.491685,-4.079865,7.130337,-3.329705
65.524625,-4.204368,7.505192,-3.424579
65.559640,-4.465944,7.897706,-3.434006
65.591277,-4.150796,7.951128,-3.739727
65.625119,-4.245670,8.166764,-3.795244
65.658768,-4.361643,8.065306,-4.650304
65.691704,-4.063854,8.095384,-5.421863
65.725509,-3.828615,7.359590,-5.363652
65.758154,-3.358287,6.416540,-5.775918
65.791737,-3.665055,6.279018,-6.307001
65.825493,-3.304116,6.231581,-6.730940
65.858594,-2.901128,5.505514,-6.962737
65.891432,-2.042776,7.119263,-7.706612
65.925312,-2.494099,6.932808,-7.972976
65.958306,-2.498888,5.662190,-7.649598
65.991740,-2.037239,4.863845,-7.313949
66.025832,-2.072106,4.964405,-7.817647
66.057894,-2.058039,4.642074,-7.834706
66.091671,-2.344306,4.516673,-8.054831
66.125792,-1.736008,5.094594,-7.960257
66.158415,-1.766535,4.921457,-7.618023
66.192276,-2.511607,4.890032,-7.686560
66.225350,-2.087070,4.905146,-7.915962
66.258403,-3.054811,4.699088,-7.398796
66.292161,-2.953204,5.285389,-7.630593
66.325215,-2.040980,5.866901,-8.038221
66.358553,-2.407905,6.016245,-7.613085
66.392274,-1.763841,5.707232,-7.739384
66.424749,-1.959574,6.028366,-7.996021
66.458777,-0.631643,6.365961,-8.422653
66.491881,-0.745820,6.019986,-8.074584
66.525036,-1.660737,6.526827,-7.485290
66.558476,-1.634550,6.585786,-7.359590
66.591938,-2.268737,6.342467,-7.015710
66.624918,-2.194514,5.208772,-6.885371
66.658470,-2.485420,4.552587,-7.165653
66.692191,-2.442921,5.332975,-7.628348
66.725038,-1.777758,6.590126,-7.757191
66.758306,-1.998033,6.415492,-7.792058
66.791949,-1.798559,5.288082,-7.858350
66.825034,-1.437171,4.610649,-7.974622
66.858437,-0.957116,6.118750,-8.237844
66.891881,-1.175146,7.135874,-8.042261
66.925032,-0.895613,5.807792,-8.287975
66.958611,-1.061567,5.327139,-8.003803
66.992005,-0.734897,4.708665,-7.634484
67.025137,-0.281029,5.466756,-7.413910
67.058045,-0.786673,7.085893,-7.182861
67.091951,-1.173949,8.160030,-7.827074
67.125072,-1.695754,5.656354,-7.339089
67.158549,-0.265467,5.305740,-7.652591
67.191922,-0.487387,4.702679,-7.992729
67.224985,-1.137885,6.074606,-7.775148
67.257969,-0.000599,6.183995,-8.126360
67.291805,-0.373359,6.044528,-7.973126
67.325182,-0.055518,5.720700,-8.198338
67.357953,-0.015413,5.598143,-7.812110
67.391734,-0.188101,5.503868,-7.624308
67.425288,0.203814,5.391186,-7.708557
67.458034,-0.014366,5.457778,-7.813756
67.491342,0.108192,5.669373,-8.191006
67.525398,0.434862,5.463165,-7.993627
67.558564,0.264419,5.554746,-8.214201
67.591830,-0.168947,5.685983,-8.309523
67.625517,0.100859,5.436528,-8.043308
67.658298,-0.200222,5.410640,-7.958311
67.691667,-0.183013,5.442364,-7.998715
67.725515,0.243768,5.498630,-8.055130
67.757909,0.093976,5.433984,-7.862689
67.791679,-0.207704,5.395227,-7.966542
67.825513,0.411219,5.178843,-7.913119
67.858357,0.111634,5.313522,-7.958760
67.891669,0.068985,5.455533,-7.993178
67.925513,-0.195583,5.375324,-7.816599
67.958398,0.205909,5.361707,-8.031487
67.991750,-0.191393,5.443711,-8.129203
68.025518,-0.610843,5.521974,-8.292763
