time_tick,acc_X_value,acc_Y_value,acc_Z_value
0.017415,3.473512,-3.016503,-8.312516
0.051032,3.461541,-3.177818,-8.701288
0.084117,4.054276,-3.449868,-8.572296
0.117630,3.304864,-3.489075,-8.368931
0.150722,3.264910,-3.449420,-8.271364
0.184282,3.568685,-3.463785,-8.618237
0.217600,3.424130,-3.443583,-8.255951
0.250767,3.471567,-3.413056,-8.324637
0.284253,3.322822,-3.184402,-8.211806
0.317460,3.483089,-3.376992,-8.508698
0.350693,3.799883,-3.472315,-8.261039
0.384581,3.412308,-3.260121,-8.099724
0.417834,3.224207,-3.088181,-8.049743
0.450939,2.908909,-3.106438,-8.349328
0.484120,3.624651,-3.335392,-8.918570
0.517877,2.894394,-3.255782,-8.579778
0.550819,3.190687,-2.969365,-8.147310
0.584431,4.107849,-2.847556,-7.408373
0.617510,3.976312,-2.343558,-6.185192
0.650833,4.487193,-3.066034,-6.472506
0.684422,4.619029,-4.324831,-5.398818
0.717870,5.437875,-5.277757,-4.651651
0.750817,5.604727,-5.982426,-4.710910
0.784415,5.949055,-8.498822,-1.408589
0.817787,8.849585,-12.388191,-1.623776
0.850816,6.931761,-12.664582,-1.506755
0.884326,6.428511,-7.226707,2.086921
0.917558,10.058400,-10.131426,0.097866
0.950702,12.063616,-11.778546,-1.341549
0.984137,15.832523,-10.759178,-4.179079
1.017514,9.015688,-13.321664,-7.752851
1.050706,10.565690,-12.062568,-13.372992
1.084751,14.069131,-8.254455,-19.840560
1.117869,2.505173,0.170144,-11.978619
1.150821,-4.815510,6.665845,-12.694062
1.184436,-4.095877,4.973683,-15.501214
1.217581,-4.039013,1.501667,-9.749837
1.250824,-4.415215,-1.925905,-4.885094
1.284264,-4.646862,-7.896808,0.654538
1.317635,-0.601864,-8.741393,4.984307
1.350824,-1.437919,-10.038797,2.111312
1.384266,1.856021,-5.012141,4.910982
1.417642,4.441852,-5.106715,5.837871
1.450822,21.143202,-8.261488,6.692631
1.484360,21.763172,-8.427292,3.834601
1.517520,19.697800,-18.352660,0.500256
1.550694,11.001301,-15.642925,-3.332099
1.584326,4.806531,-9.119540,3.392855
1.617821,3.291397,-13.743956,0.698833
1.650822,5.027853,-12.558934,1.136538
1.684559,19.907450,-11.523854,0.341784
1.718023,27.136402,-10.820083,-1.842703
1.750816,35.981198,-4.362242,-13.007564
1.783828,0.910727,-0.309611,-11.918612
1.817337,5.041621,-1.098230,-15.924404
1.850701,-11.279187,-8.199536,-16.660049
1.884456,1.632904,-2.033947,-7.597522
1.917840,3.809460,-13.345308,0.563855
1.950742,5.926759,-33.691212,7.379193
1.984025,12.355569,-24.680013,8.282288
2.017509,-3.262815,-4.057419,17.322069
2.050752,-20.020431,-3.877548,20.731235
2.084024,27.400521,-41.518436,-2.705395
2.117481,38.291086,-2.812539,-4.200777
2.150648,23.912344,13.603142,1.765936
2.184031,19.704385,-1.731369,-21.523594
2.217510,5.754370,-9.444116,-19.225827
2.250902,1.945658,-13.070414,-17.702461
2.284349,-7.905338,-18.979963,-1.604921
2.317911,7.904140,-27.426410,9.701801
2.350692,3.629889,-23.644334,14.262769
2.384267,-16.524472,-3.374448,24.577507
2.417585,8.976482,-6.838383,13.941784
2.450927,30.830787,-20.220054,-6.997753
2.484347,38.964330,-2.142139,-11.060260
2.517522,19.678496,-3.770254,-16.624583
2.550466,3.848218,-5.556392,-17.202654
2.587573,1.145666,-30.609315,-22.725526
2.617335,0.464043,-33.085607,-8.934432
2.650687,1.177091,-16.672918,17.271190
2.685082,-25.784078,-10.016051,31.359924
2.717464,-12.379362,-6.678415,19.626421
2.750825,7.272198,-10.071120,15.003651
2.784881,41.765047,0.590192,-8.495978
2.817319,23.697307,-12.614751,-18.800691
2.850771,14.022143,-33.656494,-24.375639
2.884183,-2.345803,-15.954482,-17.434600
2.917473,10.599360,-7.722474,-15.332566
2.951064,-9.938237,-8.151500,1.219440
2.984100,-1.749476,1.668519,-0.799542
3.017485,-5.761702,-2.149322,-1.313865
3.051068,-2.072256,-6.374790,8.453480
3.086644,27.050656,-21.627895,-4.904548
3.117644,11.062355,-11.016714,2.751784
3.151065,8.976482,-2.766150,8.202229
3.184284,12.508654,-3.155222,-1.636495
3.217523,6.981292,-4.811619,0.098016
3.251062,5.385500,-4.857859,2.119692
3.284217,6.574563,-6.230234,-1.542071
3.317923,5.319807,-5.388044,-0.712600
3.351093,5.008849,-7.656332,-0.988541
3.384281,6.759372,-12.329831,-3.425327
3.417908,9.053847,-11.312259,-0.248557
3.450851,5.543673,-10.453308,1.561375
3.484250,7.151885,-9.098291,1.063812
3.517986,6.018939,-8.752616,3.812154
3.550854,10.189488,-10.402280,3.076659
3.584227,11.239831,-10.197419,8.061415
3.617462,24.819779,-9.216808,2.575654
3.650850,22.526651,-8.933385,4.817904
3.684490,21.815248,-21.040098,-7.593781
3.718502,8.701288,-21.642261,-9.798171
3.750691,4.682926,-19.788783,-19.406595
3.784277,-2.384860,-17.864974,-18.233993
3.817844,-11.957070,-13.312536,-12.607418
3.850644,-16.858026,-11.223221,-3.379686
3.884206,-5.933492,-5.996043,3.079951
3.917640,-1.208965,-2.249582,1.641733
3.950688,-8.895226,-4.700734,4.765978
3.984188,7.631491,-6.728545,10.838639
4.017486,21.607843,-21.661714,-1.529949
4.050783,8.745732,-13.834191,18.056217
4.083736,7.038306,-16.519534,6.987877
4.117502,6.723158,-12.548758,13.285301
4.150913,5.049552,-17.405270,9.430947
4.184053,10.617915,-24.154317,3.644105
4.217964,21.940050,-15.517974,6.263605
4.251264,32.252395,3.027726,-5.287035
4.284105,33.903705,-4.664520,-22.186213
4.317950,14.514019,-0.309911,-15.603569
4.350476,3.719525,-10.235428,-21.546789
4.384193,0.242721,-15.513784,-11.547647
4.417962,-2.496194,-27.038685,-14.294343
4.451108,3.420838,-32.162759,3.671340
4.483983,-5.378916,-11.798299,25.175630
4.517895,-20.997449,-3.783423,30.086014
4.550655,-4.669159,-20.098245,16.508161
4.584097,9.011199,-26.599632,10.046878
4.617784,27.595656,-17.730445,-0.445936
4.650772,40.202027,5.192760,-13.843020
4.684041,19.960424,-3.062144,-24.107928
4.717750,13.488366,-8.136237,-23.033940
4.750835,-3.357389,-23.086764,-10.357686
4.784126,-3.768159,-38.994857,-13.873847
4.817423,16.702547,-24.384617,20.560791
4.851337,-23.831836,-10.390907,33.510443
4.884902,-17.983341,-3.593376,22.602969
4.917623,9.703747,-18.021949,13.889709
4.950752,28.405972,-18.595381,-2.636858
4.984191,23.017779,-1.177391,-14.616076
5.017261,31.406164,4.359847,-20.613017
5.050704,3.653682,-6.361022,-25.104250
5.084103,1.576339,-15.349925,-20.504974
5.117513,1.071743,-17.803620,-1.881012
5.150994,6.511862,-35.443830,11.286221
5.184063,4.390075,-16.747889,17.895800
5.217519,-10.484733,-8.429836,20.609724
5.250823,0.457458,-2.913847,16.749236
5.284066,17.283162,-16.306293,3.277181
5.317656,34.990112,-8.493285,-8.687372
5.350663,13.087622,6.058295,-19.065559
5.384835,10.471265,-0.219825,-21.976414
5.417485,-0.348967,-5.636751,-13.859032
5.450693,0.772906,-7.241671,-6.625890
5.484295,-0.367972,-13.713280,2.173414
5.517820,8.875922,-37.393378,5.174354
5.550689,4.525203,-21.999459,17.350800
5.584291,-1.315062,-5.811384,22.107201
5.617644,-3.290798,7.350013,15.813219
5.650724,29.654593,-36.297244,-7.947238
5.684160,26.246026,-3.223309,-0.106246
5.718589,18.178176,-2.155756,-24.958049
5.750695,10.964039,-6.647289,-20.460979
5.784293,-6.126233,-8.071441,-24.637065
5.817955,-11.820745,-16.028406,-21.803576
5.850720,7.246909,-41.116794,-7.899950
5.884167,4.401448,-14.419295,16.838124
5.917845,-4.595535,-20.061433,18.822239
5.950698,-3.722668,-11.410724,10.539652
5.984888,2.026016,-2.319316,25.267212
6.017473,2.394437,-14.902342,17.832351
6.050644,23.619493,-4.924899,-5.788638
6.084234,18.443344,1.777010,-6.462929
6.117329,13.468613,6.645045,-6.723158
6.150973,8.799005,-8.276153,-12.156394
6.184085,15.746778,-11.338147,-18.068189
6.218035,4.085103,-12.303045,-2.828850
6.250879,1.846145,-25.314050,-9.017484
6.284107,10.663407,-18.197480,-9.776772
6.318137,-0.011971,-4.085701,-5.558487
6.350902,9.553655,-1.247573,-3.230342
6.384237,10.594721,-3.966436,-2.432596
6.418007,4.403693,-3.607293,-4.102910
6.450820,4.356405,-0.643465,-1.816516
6.484245,9.561586,-2.803112,0.639724
6.517988,7.387423,0.061503,1.809483
6.550829,6.273930,-3.577813,0.476313
6.584287,5.799562,-8.610904,1.012634
6.617773,7.329212,-9.089163,2.512505
6.650841,7.694940,-6.913654,1.423553
6.684247,6.818481,-6.955703,3.854054
6.717871,9.712276,-7.298835,2.557099
6.750715,7.813158,-8.201631,1.714459
6.784369,8.273459,-9.004315,2.011351
6.817767,11.508141,-11.259285,-0.373359
6.850768,11.971286,-10.182305,-0.191842
6.884067,10.522593,-7.900250,-0.286417
6.917516,11.146454,-6.132817,-2.023173
6.950730,11.741135,-5.196950,-2.937790
6.984673,7.248704,-3.289152,0.460152
7.017079,7.594080,-4.370023,0.803583
7.050720,3.863781,-6.457841,1.990251
7.084383,0.765873,-3.552972,7.623710
7.117489,0.462995,-6.833894,4.779596
7.150841,1.118282,-7.720977,3.147739
7.184508,-1.838513,-7.829319,5.628520
7.217767,0.878853,-7.738336,2.233271
7.250743,0.383535,-9.790539,6.940290
7.284241,5.531402,-12.541875,7.237631
7.317468,3.782076,-11.472377,5.892640
7.350830,3.629290,-12.342401,10.605645
7.384454,5.836823,-13.696819,9.338169
7.417369,9.489009,-14.531827,9.099039
7.451070,11.383938,-9.269333,9.641495
7.484462,14.821386,-9.126424,3.974217
7.517439,20.055746,-8.869936,1.000513
7.550832,20.413692,-8.460663,-6.500939
7.584401,11.668708,-10.655625,-11.345479
7.617415,12.737159,-13.433597,-19.056131
7.650831,2.364957,-18.449928,-14.751053
7.684270,-4.234446,-18.132834,-13.582791
7.717496,-8.471736,-14.417799,-10.716979
7.751064,-9.086320,-10.846869,-2.587476
7.784031,-1.404399,-8.679889,3.719974
7.818084,-0.713198,-8.103315,2.146628
7.850811,0.067489,-3.631236,10.759777
7.884212,12.018873,-7.764374,6.265999
7.917871,15.758599,-13.684997,2.922078
7.950906,12.284938,-19.854776,10.177067
7.984520,7.993926,-19.954588,0.996622
8.017723,6.868761,-15.744383,9.151564
8.050957,5.066910,-14.740130,4.369275
8.084185,11.046044,-17.579904,6.341120
8.117845,20.801118,-17.631082,2.393090
8.150749,34.956443,-7.334300,-8.055878
8.184027,28.944986,1.580978,-15.542515
8.217654,9.801314,-3.466180,-24.465275
8.250751,-0.892770,-7.470924,-21.226253
8.284053,-7.025886,-10.251589,-3.931270
8.317422,3.582153,-14.930176,-16.402363
8.350781,22.724928,-14.383530,-4.976675
8.384103,1.965261,-13.884022,15.727025
8.417327,-1.959425,-13.283355,13.421177
8.450837,0.780538,-14.493518,15.688118
8.484170,8.887444,-11.836458,10.155369
8.517616,0.588396,-11.070136,11.285472
8.550835,16.655110,-19.433232,0.557270
8.584200,33.518673,-5.727733,-3.565542
8.617560,24.513161,-2.613065,-26.002258
8.651116,4.206164,-2.949163,-24.893852
8.684155,6.404419,-8.990399,-26.146813
8.717586,-13.882077,-9.713024,-1.711317
8.750441,-2.717815,-24.455099,-7.114774
8.784150,7.010173,-33.831876,14.090081
8.817658,-1.064111,-23.357019,27.821018
8.851132,1.094339,-19.753168,27.147176
8.884092,10.492215,-7.287013,22.204619
8.918166,31.079942,-13.458138,-3.271195
8.951115,31.645892,-9.256164,-5.495637
8.984027,4.526849,1.007696,-17.074709
9.017662,7.753300,-12.878571,-29.517221
9.050774,-8.492985,-19.208917,-21.349859
9.084091,-8.804392,-23.517586,-23.547365
9.117448,1.636196,-15.160776,2.779767
9.151551,-20.798125,-15.074881,31.463327
9.184235,-9.279509,-30.366894,23.169966
9.217316,-8.467546,-12.156245,32.075966
9.251019,26.749724,-32.833309,11.097820
9.284514,50.549986,-8.038221,-14.125097
9.317350,21.057157,0.050579,-34.115300
9.351337,16.136149,-10.090723,-41.205981
9.384498,5.198446,-11.115628,-29.431176
9.417317,-12.040421,-47.026493,-5.839666
9.450897,7.325022,-27.798272,26.406593
9.483745,-19.383999,-24.062137,44.069997
9.517313,-9.145878,-18.698335,30.369587
9.550745,12.938279,-22.829229,15.177686
9.584443,41.278408,-13.036445,-13.204344
9.617309,34.147623,5.652463,-29.674645
9.651058,6.071763,-4.418358,-33.654699
9.683811,-2.503526,-12.937082,-36.598325
9.717416,1.002757,-11.961859,-4.022552
9.750915,4.678437,-25.194036,-2.288939
9.784418,-6.525929,-13.341716,25.449327
9.817307,-6.052159,-19.419165,33.034279
9.850837,-7.236733,-16.917584,24.339874
9.884210,23.968909,-18.563806,8.037023
9.917422,33.378907,-5.033989,-9.390693
9.950963,21.050273,2.508465,-36.661026
9.984454,2.258860,-11.608851,-40.621625
10.017391,-12.030694,-18.902298,-21.705261
10.050840,2.086322,-36.142812,2.851297
10.083961,-3.407968,-28.649741,32.839743
10.118130,-2.027512,-18.055319,37.779906
10.150657,5.738807,-24.409159,26.804494
10.184523,17.297378,-14.601111,18.342783
10.218427,52.291980,-10.285409,-16.760459
10.253088,9.304948,-2.498738,-24.373394
10.284053,13.525478,-0.394160,-32.159616
10.317507,-3.286608,-4.719290,-15.382397
10.350675,1.007546,-10.623302,-11.307320
10.384420,3.191734,-17.820829,-5.479326
10.417888,-10.201160,-30.712569,21.437100
10.450654,-1.024905,-18.525049,28.330403
10.484281,-9.495444,-4.764482,27.922326
10.517281,23.499928,-29.297246,15.860506
10.550656,42.214724,-14.190940,-2.104728
10.584248,25.529536,-4.587753,-26.071093
10.617308,13.175014,-0.315298,-30.109208
10.650643,-5.652613,-8.111695,-23.596897
10.685228,-5.766341,-20.934001,-13.759669
10.717823,-4.624715,-34.304448,6.589677
10.750643,-10.800031,-14.433511,26.795066
10.784231,-8.063361,-18.772259,27.959587
10.817646,-0.856556,-16.297015,23.031247
10.850401,24.848810,-14.110731,13.755329
10.884315,39.451717,-10.392703,2.669929
10.917536,21.749106,-0.928235,-28.395647
10.950648,8.322392,-6.672429,-41.233216
10.984300,0.649450,-13.921283,-36.490582
11.017480,-6.472357,-32.828520,-13.592518
11.050698,-8.435523,-19.790729,9.963527
11.084309,-12.376220,-24.271188,48.606573
11.117360,-2.357625,-17.884128,44.890041
11.151326,17.802572,-18.326772,25.480752
11.184182,35.319477,-13.080290,-13.792141
11.217311,34.631568,-11.574882,-50.687807
11.251511,-16.904266,-5.974046,-41.965868
11.283792,-6.907518,-18.743228,-41.679751
11.317354,0.460002,-33.219088,20.204641
11.350663,-9.958888,-37.750277,35.981796
11.384260,-9.935244,-4.735601,36.797350
11.417312,-3.239471,-41.389743,24.106282
11.450772,40.369178,-11.250456,-3.587839
11.484296,40.556680,11.787674,-14.250797
11.517427,16.232818,-8.726877,-33.035027
11.551494,-0.903245,-7.241073,-34.166178
11.584357,-0.479755,-14.567442,-20.501982
11.617365,-5.844605,-41.285442,16.886907
11.651366,-26.304088,-13.584437,38.185139
11.683767,-13.589375,-25.260178,37.769431
11.717517,18.082704,-36.966447,25.442144
11.751242,48.455583,-2.464769,-11.237736
11.784123,49.099347,2.979241,-34.546271
11.817545,15.446893,-10.636770,-35.482887
11.851028,-17.575714,-25.398299,-46.530726
11.884111,-6.883576,-41.002766,0.094275
11.917540,-26.242884,-37.482266,46.703863
11.951114,-23.350435,-9.692972,48.862163
11.984717,2.093654,-31.573614,32.729157
12.017522,50.531580,-11.899457,-9.015688
12.050998,47.054177,2.302706,-30.097686
12.084312,18.301183,-5.173157,-31.593816
12.117450,-10.821430,-17.487275,-39.831062
12.150931,-16.603484,-21.933316,-18.758192
12.184413,-10.036104,-28.932416,20.613017
12.217530,-11.634290,-19.548756,39.047082
12.251029,7.738186,-31.382520,36.458858
12.284199,22.916171,-14.140510,16.113553
12.318004,35.300921,-6.240859,-25.779739
12.350656,33.993790,-4.650304,-31.120046
12.384289,-10.650388,-8.523064,-26.688371
12.417499,-11.403840,-15.375513,-20.846460
12.450564,-1.219291,-24.505679,4.248513
12.484162,-5.403008,-27.625734,29.833267
12.517656,-24.961491,-21.494264,30.144225
12.550668,1.404848,-24.162996,29.488340
12.584193,29.358899,-11.129096,-1.326285
12.617720,45.649329,7.150987,-17.076355
12.650562,20.815184,-1.806639,-22.845240
12.683971,-4.081960,-12.552200,-23.583429
12.717540,-6.886269,-14.379789,-12.094742
12.750420,-0.712899,-13.430754,16.189571
12.784016,-9.540636,-21.541850,37.121178
12.818184,-7.161163,-21.097261,29.508691
12.850587,1.264333,-21.923590,15.802744
12.884139,46.826121,-6.553164,-19.359009
12.918172,25.680825,-4.960963,-35.722166
12.950461,19.892187,-1.820706,-28.930471
12.984104,-11.498863,-15.544760,-20.941483
13.017547,-3.764717,-22.803789,11.609449
13.050624,-7.976867,-34.521880,38.467814
13.083968,-8.581275,-28.528081,44.609760
13.118007,0.779939,-28.728303,28.258125
13.150841,26.259195,-7.437554,7.721576
13.184030,45.976299,-5.691969,-31.020983
13.217864,21.413307,-5.368291,-30.434831
13.250385,1.749176,-12.258152,-38.256369
13.284095,-3.038650,-25.163060,-4.350120
13.317981,-10.168538,-39.350109,28.681465
13.350377,-24.318775,-19.453882,44.769129
13.384055,-5.470348,-12.402258,35.852355
13.417427,2.336076,-22.656241,24.331494
13.451179,60.131923,-5.196202,-21.300027
13.484090,50.020400,-2.108170,-41.858275
13.517892,8.484007,-11.363436,-29.004095
13.554973,-5.003910,-31.905971,-30.459074
13.584093,-12.039523,-59.836229,31.252780
13.617410,-32.289356,-20.496594,39.019847
13.650857,-33.382498,-19.396270,45.469309
13.684143,4.201675,-18.070134,29.449882
13.717454,54.854016,-8.284234,-10.349007
13.750826,39.217376,3.485035,-31.119747
13.784267,16.783803,-5.569710,-35.391455
13.817492,13.006067,-15.314160,-24.220459
13.850890,-10.671338,-51.987456,11.302532
13.885028,-22.582916,-11.776601,40.517474
13.917420,-10.873505,-11.543457,35.207693
13.951256,-0.086793,-40.947248,25.453517
13.984977,57.493419,8.697847,-11.498564
14.017083,61.380993,9.567871,-35.088577
14.051038,0.885288,-14.875556,-26.464056
14.083730,-11.801441,-25.240425,-27.827602
14.117368,-2.737867,-44.360454,11.405785
14.150792,-18.552433,-40.156236,33.058821
14.184819,-18.735896,-6.233826,42.378134
14.217307,7.334450,-16.909803,22.500313
14.251050,35.007770,-14.076762,-1.638141
14.284815,34.645185,0.867181,-23.291476
14.317353,1.404549,-5.421564,-29.220629
14.350844,-0.690901,-11.127450,-26.043410
14.384590,-7.466136,-24.505978,-0.844585
14.417362,-2.654816,-24.120797,17.688844
14.450844,-0.000150,-14.821984,21.801032
14.484226,-11.266917,-23.685186,24.598906
14.517411,21.612033,-16.686984,8.172001
14.550758,34.024766,-3.716083,-10.221361
14.584199,23.600339,-0.977917,-35.292990
14.617314,7.569988,-5.860317,-28.014806
14.650844,-4.037666,-16.435285,-21.382481
14.684296,2.578947,-22.622721,10.716530
14.717563,2.435140,-31.337777,16.565474
14.750798,-7.744621,-21.149786,30.246132
14.784295,-8.758153,-20.951659,25.686810
14.817463,6.200755,-18.011773,9.780214
14.850851,30.987164,-5.417673,-1.518128
14.884749,33.402999,-4.612893,-25.909928
14.917054,8.319400,-3.810059,-27.321360
14.950774,-12.791329,-12.737308,-31.277321
14.984321,-1.435076,-27.153611,-4.242078
15.017440,-2.158300,-15.286626,25.439750
15.050855,-12.663385,-22.664621,45.026964
15.084478,-0.511180,-10.077405,32.585799
15.117619,14.882141,-17.819332,10.836544
15.150695,39.817594,-9.056840,-17.483683
15.184406,37.873732,-1.972743,-42.157561
15.218190,-4.259586,-9.513251,-26.090098
15.250828,-15.825789,-16.509358,-29.135033
15.284149,-1.923660,-36.342885,27.939535
15.318028,-16.607374,-25.215585,47.128550
15.350732,-7.397599,-25.812959,37.049798
15.384209,13.181748,-14.018851,17.495655
15.417187,35.811203,-3.100153,-9.025565
15.450767,32.229050,-1.836568,-30.461767
15.484176,9.919083,-7.978812,-23.314670
15.517395,-8.680189,-14.306913,-24.637065
15.551081,-5.358564,-13.366108,-9.369444
15.583745,-9.171766,-35.562796,23.451743
15.617404,-19.401208,-15.705476,46.542698
15.650728,-1.840010,-18.192542,42.059544
15.684092,24.029215,-13.149126,14.884685
15.717476,47.442501,-7.092627,-23.344449
15.751136,25.409073,1.569006,-38.690334
15.784155,-5.382358,-14.800885,-44.490195
15.817319,-3.415002,-26.137984,-8.044356
15.851113,-11.998521,-40.378905,48.256558
15.885030,-21.777538,-24.143393,48.004559
15.917205,-2.874042,-22.675695,36.662821
15.950720,17.666547,-15.150451,10.104341
15.984485,39.230395,2.588224,-22.300989
16.017492,37.941969,1.166167,-36.476665
16.050449,7.766170,-16.989263,-25.744722
16.083906,-1.913035,-16.771981,-22.924252
16.117431,-10.037151,-42.376039,14.408970
16.150813,-13.004122,-21.276234,36.480257
16.184929,-11.233696,-15.365188,41.481773
16.217328,4.441403,-9.465515,32.196578
16.251139,43.252797,-5.683589,-9.590916
16.284904,40.101018,0.497413,-27.497939
16.317367,5.207724,-6.363417,-28.665753
16.350641,-6.066076,-15.744533,-16.225336
16.384970,-12.808838,-43.933822,-1.498375
16.417106,-5.935438,-30.341754,15.549848
16.450707,-2.963828,-21.247203,30.246581
16.484907,-5.876329,-14.071675,31.910461
16.517365,6.123689,-5.940825,21.947532
16.550651,37.650165,-2.516396,-2.116101
16.584564,27.294275,0.224315,-16.496788
16.617331,7.984798,-6.421927,-22.879658
16.650645,-0.453867,-12.004956,-30.517584
16.684507,-17.646794,-11.620373,-22.070090
16.717379,-1.172602,-26.234354,-0.297789
16.750649,-4.854268,-14.534670,36.921704
16.784889,-15.996831,-24.884275,40.210706
16.817322,9.859974,-19.534091,21.723966
16.850648,22.527548,-10.950572,-1.243383
16.885346,31.042382,-4.633245,-25.276789
16.917471,30.455183,4.342040,-28.250044
16.950653,2.428106,-14.843982,-21.837844
16.984614,-4.917716,-20.678411,-12.441764
17.017452,-2.264547,-42.729496,4.428533
17.050656,3.067381,-23.557840,23.360311
17.084090,-27.220052,-9.103080,35.621606
17.117373,-7.177474,-15.671358,25.104250
17.150646,11.321237,-5.930200,13.945675
17.184465,33.835168,-4.727221,-9.553954
17.217348,26.097580,0.489931,-26.665475
17.250697,12.989008,-4.457863,-25.739784
17.284555,-0.980311,-13.052606,-14.743571
17.318103,-1.128757,-22.314607,3.737183
17.350692,-0.817350,-15.952686,29.049138
17.384330,-20.429854,-28.454008,30.777065
17.417678,-3.727456,-18.981759,22.465447
17.450702,17.017994,-11.805482,7.045489
17.484254,39.079854,-3.825622,-12.988858
17.517466,29.746773,2.188079,-25.289059
17.550649,9.447259,-4.210803,-28.809410
17.584124,-5.328187,-12.515986,-24.214324
17.617233,-1.052289,-17.321021,-7.598420
17.650914,-7.032470,-39.832259,25.546745
17.684170,-14.136470,-29.808276,38.877387
17.717690,-6.690387,-22.669859,35.246002
17.750944,9.602887,-14.317538,13.775531
17.784412,35.614423,-4.353712,-13.263603
17.817339,41.569165,-2.823313,-30.094543
17.851198,-1.167514,-3.217772,-29.476967
17.884047,-14.773949,-9.059683,-17.393449
17.918015,-0.171341,-21.470770,-1.559579
17.950394,-10.395546,-27.431797,40.929441
17.984033,-17.484880,-29.245619,37.927304
18.017419,1.125315,-22.454373,33.523163
18.051136,32.691746,-15.479665,3.545939
18.084036,38.748245,-2.589571,-31.581994
18.117750,50.651145,3.706506,-39.527436
18.150411,-7.648101,-16.578942,-33.645421
18.184031,-3.253836,-15.442554,-26.443854
18.217730,-11.021203,-55.140732,15.426242
18.251381,-20.357726,-30.579835,35.388462
18.284050,-18.948987,-14.972375,41.096143
18.317282,3.037004,-37.298654,29.856761
18.351029,44.864003,1.254457,-4.259287
18.384024,36.563009,12.684335,-25.397102
18.417471,24.187238,-5.126767,-34.438528
18.450693,-3.390311,-9.256913,-10.965536
18.484046,-1.555987,-17.927375,-0.665911
18.517551,-6.542988,-26.949198,21.615325
18.551124,-11.862346,-33.328178,35.711691
18.584253,1.320898,-24.067674,26.902659
18.617481,14.285215,-12.866450,16.800863
18.651137,48.568414,-1.322844,-29.337500
18.684174,29.059613,-2.873893,-34.531606
18.717564,5.948457,-8.013230,-30.012090
18.750776,-18.279933,-15.652802,-33.083811
18.785213,-10.080248,-36.841345,9.378423
18.817311,-23.658251,-26.926901,37.289227
18.850669,-0.750759,-34.998492,38.401822
18.884659,1.995040,-30.868347,24.715029
18.917358,31.132467,-16.128666,0.726217
18.950766,44.041266,4.321688,-17.195321
18.984580,28.555615,-5.003312,-23.762252
19.017331,-1.967954,-13.274676,-27.791538
19.050760,-2.280858,-30.320953,-16.272024
19.083849,-29.199828,-24.674476,27.833438
19.117371,-10.704409,-31.023377,35.914607
19.150767,-17.542044,-23.518634,39.721523
19.184374,25.549588,-24.357233,14.734742
19.217406,43.491179,-3.453759,-21.514765
19.250847,56.803864,3.873208,-35.403725
19.284041,27.974552,-9.301207,-23.210519
19.317876,-17.988728,-13.078045,-30.999135
19.350440,-16.437529,-68.693146,19.274610
19.384286,-27.615708,-32.852613,38.856587
19.417344,-10.808860,-13.263453,47.803439
19.450428,11.600022,-20.497343,30.452340
19.484243,50.902994,-2.893346,-5.429794
19.517811,44.254956,0.984202,-28.372003
19.550749,5.909400,-7.738635,-24.526778
19.584028,4.039013,-3.074265,-21.972822
19.617879,-33.353019,-54.680880,22.897765
19.650899,-17.609383,-19.328182,30.156346
19.684065,-18.515621,-25.445287,39.162607
19.717854,24.014700,-27.074599,20.670629
19.750936,57.586347,-8.228417,-18.763579
19.784270,45.956097,9.155305,-28.032464
19.817408,24.006170,-6.730042,-32.990434
19.850831,-16.176851,-14.276536,-26.294510
19.884246,-6.695325,-57.379241,12.667724
19.917409,-27.106772,-18.119666,42.520145
19.950811,15.214947,-24.316979,40.206666
19.984047,1.007396,-18.239380,16.390392
20.017467,22.113038,-3.588588,-10.088628
20.051223,44.329628,2.700157,-19.809584
20.084107,-8.419660,-3.577963,-27.356077
20.117362,-6.114112,-19.279848,-25.604656
20.151642,-0.957266,-19.452087,14.075565
20.183948,-16.345948,-8.090147,38.121840
20.217338,1.040767,-13.254325,19.908947
20.250755,-9.486914,-20.486568,21.248999
20.284069,20.488813,-14.991081,7.555921
20.317821,42.102791,-2.077942,-33.506103
20.350950,34.287239,1.188464,-32.717186
20.384031,13.407709,-2.503676,-17.000037
20.417359,-19.194701,-25.322879,-16.560237
20.459656,1.627966,-34.103628,24.183198
20.484103,-8.996384,-13.459635,36.206710
20.517459,-14.888126,-21.507133,31.806010
20.550780,-4.084055,-19.596492,16.702248
20.584057,14.241220,-12.987212,12.790132
20.617514,41.347992,-9.562035,-13.634418
20.650957,25.126996,-7.171788,-32.532377
20.683755,22.578577,-2.837829,-33.034728
20.717099,-4.492880,-12.874381,-31.553562
20.751236,2.241202,-37.380060,-5.045811
20.785015,1.133545,-28.097409,21.828417
20.817293,-44.875825,-18.066393,50.415756
20.850753,-12.558784,-25.583407,28.075411
20.884582,-1.354867,-23.332927,24.211481
20.917370,32.165602,-31.741963,-4.052331
20.950788,60.781972,0.157724,-20.230829
20.983781,39.949429,4.633395,-24.882330
21.017339,-5.928405,-14.258728,-26.620582
21.051126,5.806296,-31.509417,-18.112633
21.084292,-23.138241,-59.252472,24.940691
21.117362,-19.958778,-20.983233,56.713779
21.150760,-15.919915,-27.995951,37.071047
21.184099,11.374061,-10.195024,26.181081
21.217363,41.707884,-15.373718,-7.817048
21.251088,55.221240,0.754799,-17.020089
21.284152,44.651959,-9.301207,-20.678411
21.317367,-14.233139,-23.462368,-26.370230
21.350873,7.021397,-27.550314,-14.306614
21.384233,2.086322,-21.597069,9.401917
21.417322,-33.607412,-34.047212,23.866703
21.450756,-21.431264,-19.296308,29.595634
21.484049,-0.954872,-15.719243,35.575366
21.517553,41.430595,-34.872343,14.438150
21.550773,39.628296,-7.698381,13.214370
21.584090,28.714087,-7.961304,-17.043883
21.617558,34.089561,-2.287442,-25.312254
21.650760,-8.890736,-10.304413,-30.435580
21.684031,-22.556729,-14.887677,-21.849217
21.718087,0.077365,-32.342330,16.015686
21.750668,-28.563397,-25.190594,36.545352
21.784351,-11.139271,-27.686489,38.221353
21.818359,-0.672046,-23.118040,27.394835
21.850549,14.835602,-22.242928,15.557330
21.884271,31.530966,-12.511647,-1.906002
21.918330,47.100117,-1.699944,-34.211670
21.950491,16.729633,-8.401554,-31.532313
21.983823,8.972591,-14.011069,-37.777212
22.017870,-4.311363,-35.647943,-19.372477
22.050648,-10.017249,-49.067922,41.926961
22.083718,-4.326776,-0.550087,40.612048
22.117860,-22.798253,-28.110577,29.813664
22.150653,-1.473085,-31.839530,25.419099
22.184047,38.841174,-21.367516,0.672046
22.218148,41.567219,0.808521,-30.477330
22.250376,19.311123,-4.719589,-35.568931
22.284101,-7.022594,-14.050724,-31.036845
22.318001,-1.208516,-39.725115,3.315788
22.350419,-7.810464,-36.251303,30.524617
22.384054,-34.305795,-19.532295,33.786085
22.417528,8.045852,-37.031841,23.146621
22.450696,2.612766,-11.439605,19.608763
22.484106,40.155937,-15.508097,-6.456345
22.517463,46.811307,9.053249,-17.128880
22.551238,22.059914,-11.039310,-28.339232
22.584098,-11.601967,-16.318264,-19.467650
22.617761,-6.556007,-24.481736,8.865896
22.654097,-21.722170,-16.633412,34.323004
22.684056,-8.210908,-21.166396,34.085970
22.717456,-8.236946,-24.480090,29.650852
22.751214,32.024937,-22.044351,3.393004
22.784149,43.421595,-2.716319,-22.639930
22.817439,43.415459,-3.704561,-37.733666
22.851087,-8.235450,-11.157228,-21.626249
22.884049,-7.740880,-15.499867,-18.978018
22.917631,-15.751267,-26.488597,33.016023
22.951196,-8.165716,-30.629966,30.040373
22.984178,-10.440139,-33.274306,24.111220
23.017519,10.131127,-20.290536,10.262064
23.051076,32.222316,1.009791,-7.564451
23.084125,48.614803,10.708599,-14.831112
23.117560,3.415151,-13.158104,-18.441398
23.150890,-5.496685,-7.389518,-16.475838
23.184720,-1.117234,-29.076971,-3.184402
23.217450,-31.119298,-23.687132,36.414713
23.250685,-3.040745,-31.160001,22.335257
23.284604,-10.796140,-21.834552,16.620244
23.317687,19.643330,-10.930370,6.227092
23.350639,25.382736,-3.612081,-0.765873
23.384047,16.554251,1.191307,-3.261169
23.417507,9.810292,1.902411,-3.475906
23.450670,7.561458,-0.086344,-3.862733
23.484093,7.405381,-4.411175,-3.136217
23.517839,5.528708,-10.288102,-3.492816
23.550721,8.798257,-12.548758,-4.674097
23.584267,5.497882,-14.392808,-3.741972
23.617759,3.205053,-15.260887,-3.279276
23.650445,5.272819,-15.636940,-2.028859
23.684216,6.867264,-17.237521,-0.753003
23.717944,6.352942,-10.755736,1.141925
23.750517,2.512655,-8.697547,4.367928
23.784053,2.202595,-8.765485,3.065585
23.817752,4.473277,-8.234702,2.177455
23.850670,4.467291,-9.600493,2.544379
23.884107,2.858480,-6.464725,3.788510
23.917559,2.950360,-5.395077,2.878232
23.950723,3.347662,-3.741972,3.900443
23.984139,2.272478,-4.145708,3.601906
24.017805,1.304587,-4.329919,3.946533
24.050722,1.639937,-6.786008,4.994782
24.084153,0.933622,-15.797058,8.168560
24.117842,1.583671,-18.144207,10.520049
24.150720,-3.905082,-16.247333,15.197438
24.184381,0.139318,-20.967072,14.284616
24.217512,10.215076,-19.339406,14.602757
24.250723,13.964680,-9.613811,11.119070
24.284693,25.527890,-5.820213,3.315938
24.317768,35.121948,-7.753450,-6.831350
24.350695,19.274909,-14.892017,-9.232970
24.384686,10.759029,-21.206800,-15.837910
24.417591,1.081619,-24.108975,-11.876562
24.450649,-14.155624,-24.427715,-11.906491
24.484116,-11.531785,-14.741027,-6.618857
24.517625,-4.585509,-12.402856,4.922505
24.550971,-4.778399,-6.938195,9.464467
24.583759,0.324127,-9.124479,7.671595
24.617775,8.955831,-24.083087,10.589782
24.650947,12.862709,-22.761740,16.196754
24.684106,4.182071,-21.995717,13.150921
24.717662,4.411773,-21.211738,18.340539
24.750847,12.107760,-25.418201,15.613296
24.784014,32.499605,-17.080545,1.522467
24.817768,37.140631,-8.769825,7.150389
24.851991,36.255643,2.645089,-5.969407
24.883985,7.409571,-5.057183,-20.478937
24.917350,-1.834473,-13.552563,-25.746518
24.950833,-23.687581,-19.785192,-21.920597
24.984013,-11.546899,-15.829081,-16.884962
25.017363,-10.834748,-7.978663,-2.422869
25.050870,13.726149,-42.513262,18.668257
25.083739,21.964442,-21.493366,12.965813
25.117875,10.973916,-3.522445,15.317901
25.150757,9.901275,-3.242763,10.915405
25.184024,14.917606,-0.582560,4.198083
25.217514,14.942746,4.518020,4.449783
25.250817,6.580249,3.912714,1.909893
25.284267,2.797725,-4.256444,-3.248599
25.317938,5.900122,-8.347832,-3.597267
25.351030,6.541941,-10.969875,-5.131406
25.384250,6.379279,-12.166121,-5.002414
25.417765,3.920196,-11.313755,-1.263585
25.450715,3.478151,-8.847490,0.952777
25.484316,3.994569,-4.816857,3.372503
25.517841,3.278827,-2.473149,3.557013
25.550706,2.188678,0.747616,4.794410
25.584750,1.414275,-10.163749,3.086685
25.617335,6.249239,-12.459122,3.945187
25.650703,4.334258,-12.106563,8.142971
25.684474,6.289493,-14.262469,6.618408
25.717467,1.807687,-14.240621,7.998715
25.750848,5.272520,-17.876795,10.835047
25.784660,11.381394,-19.643779,9.149619
25.817388,14.874210,-14.920150,12.254710
25.851110,19.624176,-7.072425,7.950380
25.884645,32.157222,-7.487086,-2.373636
25.917233,23.232816,-11.401146,-0.604558
25.950692,16.192414,-18.730209,-12.310676
25.984702,7.869723,-25.255240,-17.573918
26.017333,-3.346016,-26.119279,-19.336562
26.050705,-7.219524,-25.535222,-21.370809
26.084479,-9.016287,-15.263880,-6.991169
26.117394,-11.135381,-14.185253,5.694363
26.150697,-9.683844,-10.541747,6.220358
26.184468,-3.873508,-8.980373,6.802619
26.217515,1.407691,-9.109215,10.610583
26.250761,7.056114,-11.225166,5.321602
26.284841,13.213173,-27.436885,5.077684
26.317427,17.382525,-32.861741,7.695089
26.350770,6.960193,-16.790388,12.653359
26.384995,-4.228461,-25.401591,19.688822
26.417525,13.607033,-29.517969,11.824337
26.450761,29.545503,-28.063440,5.224933
26.484200,35.088577,-3.470819,1.321647
26.517511,43.695142,-3.985890,-26.510296
26.550771,18.715843,-9.218454,-22.791668
26.584238,-4.416113,-16.212466,-21.846823
26.618711,-15.971691,-23.420917,-28.968779
26.650690,12.521972,-22.503007,-1.722091
26.684387,-14.137667,-32.429273,26.516880
26.717997,-4.638931,-14.764521,24.825765
26.750718,-5.559684,-10.806615,23.740405
26.784242,3.413954,-12.466305,19.499972
26.817713,16.900375,-22.149700,11.587003
26.850759,29.017713,-10.599808,-2.274423
26.884225,27.483723,-4.652250,-19.045357
26.917678,7.429772,-7.209797,-34.756370
26.951276,-3.946085,-6.165888,-33.130051
26.984197,-5.695859,-8.596389,-17.886821
27.017471,-5.923167,-26.043858,0.020800
27.051436,3.142951,-31.392397,27.523977
27.084179,-3.686005,-31.009909,28.123746
27.117554,-4.790520,-20.154660,25.698183
27.150770,7.802234,-14.535867,15.509594
27.184183,35.696277,-18.309114,-7.810763
27.217749,34.985025,-4.114732,-8.807086
27.251167,26.884403,-0.383984,-23.179692
27.284314,8.832974,-7.648700,-18.585804
27.317655,-1.802000,-14.108187,-11.863244
27.351244,-1.420560,-32.229050,-7.093674
27.384391,-5.773973,-21.067183,25.372261
27.417331,-11.616782,-24.802271,28.238073
27.451399,-8.497325,-9.880176,30.546615
27.484791,6.897343,-19.992597,26.592450
27.517355,45.098344,-13.804263,-6.642501
27.550931,18.801589,-3.055859,-39.846774
27.584672,11.829874,-3.650091,-43.661921
27.617318,-9.411045,-8.202678,-27.558095
27.651061,0.994228,-24.557305,-0.848176
27.684592,-13.290987,-32.730055,20.339320
27.717374,-11.142563,-38.307697,40.540968
27.750787,-2.780067,-22.809925,26.554739
27.784679,6.533261,-25.638625,19.570155
27.817313,35.320674,-11.976224,-3.031168
27.851174,41.510205,5.210867,-10.150730
27.884247,18.956020,-2.919384,-17.149231
27.917493,2.747893,-7.793405,-25.958562
27.950815,-6.876093,-20.593264,-19.136939
27.984731,-6.884623,-32.023142,4.486146
28.017361,-0.523900,-17.937251,19.319204
28.050693,-13.366108,-23.593006,29.877411
28.084112,0.858053,-17.465876,22.727771
28.117606,18.957517,-10.248297,11.861149
28.150455,35.951119,-4.298643,-11.859802
28.184395,20.891951,-2.370494,-24.152821
28.217090,9.626082,-4.256594,-25.022396
28.250693,-4.431676,-8.335561,-22.525902
28.284482,4.625164,-15.399756,-11.929386
28.317943,-2.903522,-38.534855,4.972785
28.350645,4.150796,-27.696066,19.129307
28.384734,-17.669091,-15.838509,27.922177
28.417338,-4.720636,-22.353065,22.085503
28.450716,10.135017,-9.056990,6.818631
28.485190,27.363859,-9.633863,-4.486894
28.517620,27.843016,-5.270425,-12.156095
28.550620,20.488364,7.398048,-18.262126
28.584040,-3.988583,-11.900206,-21.788612
28.617284,-8.122021,-13.917393,-18.738439
28.650641,-2.689832,-24.098351,6.751441
28.684003,1.436872,-18.274696,25.616029
28.717533,-1.314464,-13.442725,33.625967
28.750617,-7.486936,-31.927969,23.952449
28.783999,21.671441,-12.597841,14.702719
28.817421,35.322020,-8.163472,-7.820490
28.850673,30.963670,-10.692587,-32.960206
28.884087,14.095318,-5.297660,-25.792907
28.917317,-17.929919,-12.469747,-19.904158
28.950601,-2.072106,-31.881430,-1.682136
28.984000,-13.079542,-19.530799,20.237263
29.017276,-17.323865,-43.984851,32.036909
29.050608,-21.313046,-18.163511,38.845813
29.084004,25.779140,-37.126415,28.247650
29.117301,28.782175,-15.569750,10.849413
29.150642,39.229796,-4.618879,-21.793101
29.184005,40.108051,-5.492046,-24.177362
29.217272,1.066056,-11.575929,-26.810330
29.250673,-4.582666,-19.539927,-29.740488
29.284093,-11.906042,-19.618789,2.252725
29.317297,-13.983984,-28.532271,25.173385
29.350646,-17.159257,-19.088604,37.141529
29.383984,1.618688,-29.306673,24.485926
29.417254,20.358175,-29.519914,22.347528
29.450791,48.963920,-3.662212,-11.835261
29.484024,29.988297,-4.561716,-23.993301
29.517376,22.154040,-4.194791,-27.283052
29.550772,-6.061886,-6.811597,-25.883292
29.583951,-8.819506,-19.722043,-14.882290
29.617290,-9.815231,-36.886687,20.156157
29.650670,-21.074366,-20.072357,42.102043
29.683988,6.977851,-37.125966,37.077931
29.717312,16.688780,-23.761355,20.486568
29.750975,29.384338,2.362114,-17.296480
29.784168,32.265863,-0.646906,-20.704897
29.817316,-2.746996,-8.299796,-23.424808
29.850829,0.741331,-8.585165,-16.242096
29.884297,-2.468360,-10.936804,3.256380
29.917603,-3.570780,-15.108251,17.288998
29.951369,2.103681,-16.762105,20.367303
29.985165,-9.914294,-20.246990,17.539351
30.017382,11.465343,-18.400845,18.868629
30.051299,35.653779,3.156718,-8.139529
30.084820,16.338316,-3.978108,-23.245535
30.117452,14.744170,-2.969215,-19.717404
30.150831,2.943776,-10.444928,-17.843126
30.184558,-10.079201,-14.985694,-13.058143
30.217335,3.516011,-19.443707,2.041728
30.251153,-3.413356,-26.372025,24.063484
30.284790,-6.326904,-24.063035,27.964975
30.317095,6.628434,-20.586380,23.478978
30.350756,15.095532,-7.711700,2.535101
30.384801,28.090375,4.035272,-8.709968
30.417338,21.869568,0.047886,-16.278160
30.450833,-1.935482,-5.680596,-18.807874
30.484381,1.507054,-7.802383,-18.263622
30.517388,1.630958,-11.344133,-10.621806
30.550827,0.067040,-13.349198,9.288338
30.585303,2.047864,-24.795238,18.838850
30.617331,3.760527,-9.682048,25.738587
30.650739,2.040681,-22.999223,20.436438
30.684103,14.251246,-21.710348,12.707529
30.718340,26.864650,0.990187,-7.988838
30.750834,18.672597,-3.297981,-18.712402
30.784140,17.364867,-3.820833,-21.353899
30.817494,5.769783,-4.297745,-22.871578
30.851073,-8.310870,-11.277691,-20.640252
30.884131,7.263369,-15.993988,-9.349242
30.918228,-5.632112,-42.728149,20.995953
30.950730,-12.039972,-21.718130,29.150147
30.984110,-4.131492,-23.451743,33.317254
31.017319,-1.769528,-19.832030,15.208662
31.050849,13.915747,-2.803710,4.219333
31.084151,26.183026,-11.005042,-14.548138
31.117900,21.644206,-0.799093,-22.285725
31.150851,4.255696,-2.159198,-29.511684
31.184121,-5.049701,-9.910553,-13.976801
31.217673,-5.627024,-23.774972,-13.628133
31.250580,4.558274,-39.762675,15.853473
31.284056,-8.204025,-17.350800,33.438914
31.317942,-4.500512,-23.708231,42.659762
31.350488,-2.029458,-23.860718,25.327817
31.384057,18.461750,-12.470345,15.260438
31.417916,38.426962,-14.222215,-20.313880
31.451648,29.017713,-1.789580,-10.120652
31.484054,7.161463,-9.055493,-27.892697
31.517528,-18.002495,-14.539009,-22.953732
31.550856,-6.422825,-15.084458,-16.114301
31.584096,-1.500619,-23.525817,1.343045
31.617751,-14.883338,-30.876278,17.367560
31.651016,-7.742526,-22.808279,33.732214
31.684164,-12.563872,-31.627186,29.279438
31.717764,18.909032,-34.315372,23.314820
31.751262,31.768000,-15.953285,15.972140
31.784098,36.445240,-5.223736,-7.785773
31.817660,32.785273,-4.518319,-21.538259
31.850417,3.213283,-12.614003,-23.784100
31.884136,-21.983147,-17.813347,-31.997253
31.917644,-5.986616,-21.972523,-19.379211
31.951100,-12.872436,-29.333759,12.884707
31.984044,-5.995894,-22.680184,29.554033
32.017327,-21.369462,-27.527419,40.014973
32.050752,-0.426931,-19.710520,34.981283
32.084129,15.247569,-29.108097,24.518249
32.117369,56.074953,-7.049230,-21.592879
32.150909,41.037334,-1.977681,-29.450630
32.184101,11.142713,-7.306766,-30.543023
32.217317,-11.836308,-11.055322,-35.905179
32.250973,-8.771920,-24.157759,-7.006732
32.284047,-16.938085,-34.851244,33.396116
32.317316,-4.938965,-31.724604,43.584556
32.350737,-1.987558,-18.078963,38.486669
32.384193,8.386589,-27.007409,23.005957
32.417360,50.810365,-1.299200,-16.323352
32.450834,41.785698,9.570564,-6.025074
32.484172,0.519710,-11.674245,-14.847872
32.517362,-5.400614,-18.053673,-40.476172
32.550742,-0.628800,-24.539348,-17.892358
32.583774,-21.771702,-23.597047,10.638716
32.617315,15.533686,-25.890774,15.365787
32.650746,-6.368804,-23.901869,9.733226
32.684214,14.505340,-8.727177,10.966134
32.718346,17.557607,0.699880,3.913612
32.750855,7.898005,-1.482962,5.061972
32.784287,11.597628,-1.494484,2.558445
32.817389,8.850183,0.499957,2.432895
32.850762,6.363117,2.254970,0.926439
32.884157,6.608233,1.434627,-0.922249
32.917930,5.805099,-8.960470,-3.680169
32.951067,8.893580,-16.065966,-6.078496
32.984118,9.923422,-16.429000,-4.304180
33.017945,4.408780,-11.935671,-1.853178
33.050854,2.130467,-13.983385,0.731604
33.084298,7.057610,-12.074989,1.768630
33.118116,5.294218,-5.926459,2.526721
33.150851,3.121253,-3.806917,4.417909
33.184112,2.284000,-2.860575,4.136580
33.217886,2.982085,-3.968531,1.738103
33.250856,2.598699,-9.282502,4.159775
33.284298,2.861921,-15.283333,5.697206
33.317926,4.619178,-14.281175,6.942984
33.350851,6.834193,-11.718090,6.689938
33.384319,7.927634,-17.249941,9.033945
33.417636,18.962605,-9.897983,6.506176
33.450951,19.132749,-10.343620,1.840159
33.484032,23.176251,-10.920044,-2.783060
33.517950,16.729034,-15.283633,-6.935053
33.550853,14.712895,-14.237629,-14.824528
33.584236,9.436035,-17.308451,-17.277775
33.618112,6.727498,-21.912217,-12.877524
33.650422,-3.021291,-17.969275,-10.685554
33.684045,-3.459296,-13.339472,-5.720999
33.718096,0.039506,-11.221725,-4.617532
33.750719,-1.171405,-8.885798,0.542156
33.784237,-3.737931,-4.441253,3.691542
33.818059,-2.518491,-3.672388,4.827182
33.850833,-0.334452,-2.986574,6.196565
33.884244,0.607850,-1.195198,5.750778
33.918073,8.292165,-9.829447,8.825492
33.950870,20.532060,-26.374569,6.462929
33.984188,15.980819,-18.919058,6.571720
34.017873,1.392428,-15.405741,9.477786
34.050868,0.230001,-17.890563,2.747295
34.083743,5.938730,-23.859820,9.953501
34.118135,23.311528,-18.230402,6.092862
34.151702,31.820824,-8.673006,2.621295
34.184094,34.071005,-2.398328,-6.776880
34.218003,22.275101,-7.162211,-20.671228
34.251241,2.156056,-9.972056,-20.099143
34.284304,-10.988581,-8.356511,-17.771297
34.317828,-7.574627,-6.285752,-6.714180
34.350709,-6.862925,-16.397575,0.653191
34.385635,19.651710,-26.798807,-0.162512
34.417466,18.920405,-20.123385,12.001215
34.450688,3.625400,-11.453073,20.342761
34.484734,6.040038,-11.590744,10.756185
34.517601,14.866877,-5.539483,9.268884
34.550911,11.688760,-6.791695,5.066761
34.584490,21.851312,-8.293212,-9.967866
34.617515,30.521624,-3.414104,-12.474086
34.650819,4.672601,-1.913784,-16.360613
34.684452,4.481208,-2.148274,-19.708724
34.717202,-0.222369,-5.691669,-16.189122
34.750659,-1.905703,-6.944331,-5.090703
34.784192,-4.163965,-12.559682,-0.743426
34.817637,10.904332,-23.820464,7.502199
34.851171,9.265742,-30.153353,11.686067
34.884170,-0.999166,-19.068252,15.974534
34.917554,-1.842404,-18.713748,19.950847
34.950690,7.185256,-19.731769,12.901167
34.984342,24.699317,-14.418696,-1.663581
35.017466,37.398167,-4.133587,-8.874126
35.050719,21.473015,-0.340887,-19.982721
35.084460,6.330196,-1.991299,-21.737134
35.117447,1.958976,-7.342381,-14.930775
35.150692,0.921801,-14.437103,-6.522487
35.184183,-0.220125,-15.645469,3.547735
35.217428,1.012185,-21.145297,12.756463
35.250692,1.163324,-22.847635,15.263581
35.284246,-3.732095,-21.484687,17.340625
35.317456,4.705223,-12.943516,18.688010
35.350699,9.175956,-6.914103,11.174288
35.384798,24.216269,-13.361918,-6.173969
35.417762,37.692514,-4.110841,-6.078646
35.450693,15.629308,-5.798066,-11.810420
35.484284,0.505045,-7.745220,-24.482933
35.517894,2.107721,-7.874661,-25.137022
35.550822,2.858330,-13.506473,-15.844644
35.584375,0.872269,-30.190764,9.071206
35.617903,-3.673285,-34.793781,24.518398
35.650643,5.915685,-22.747524,21.807616
35.684211,-0.531981,-9.592711,18.350565
35.717461,5.412735,-2.624438,14.576420
35.750412,9.748939,-9.855185,7.279082
35.784052,36.257887,-4.061908,-16.238953
35.817480,14.984646,-3.876650,-14.539608
35.850694,6.065777,-2.185984,-19.044908
35.884069,0.069584,-8.910938,-19.747781
35.917754,-0.691051,-9.207231,-12.660841
35.950693,2.129269,-10.233034,-4.363588
35.984233,-1.880862,-20.082383,10.825620
36.017989,6.022081,-36.777597,23.053095
36.050693,8.516629,-10.430862,13.180850
36.084104,-4.720187,-15.176488,20.342911
36.117472,14.244512,-19.030094,9.973253
36.150782,27.614660,-2.946470,-1.913933
36.183994,18.308964,-4.573837,-14.350609
36.217499,23.412687,-1.122172,-18.094675
36.255507,-0.038758,-7.127194,-19.797014
36.284245,-1.143871,-9.457883,-16.776620
36.317598,3.935011,-10.563894,-7.011371
36.351366,-0.108341,-26.610856,2.667386
36.384168,1.588310,-29.938017,19.757358
36.418151,-4.179228,-11.315401,22.845839
36.450824,-10.272839,-21.496808,20.896889
36.484103,13.222151,-8.706227,13.090166
36.517543,18.806677,-4.794710,1.790478
36.551001,31.347504,-7.249901,-12.849690
36.584203,14.839343,-2.887211,-17.167488
36.619600,-3.888622,-3.249946,-21.839041
36.650628,-0.842789,-6.038392,-19.863305
36.684230,0.172389,-25.686810,-3.194278
36.717902,1.591902,-26.537381,14.788913
36.750670,-10.720720,-10.279722,18.876410
36.784293,0.043845,-23.260200,19.648119
36.817425,12.149960,-15.343939,17.420235
36.850722,16.304048,-5.785795,7.014214
36.884128,30.514142,0.538715,-20.858281
36.917380,22.480411,-1.971247,-22.092237
36.950642,0.766621,-3.796292,-23.840216
36.984205,-8.449888,-8.157336,-25.787071
37.017440,1.901064,-16.296566,-11.370919
37.050945,4.175188,-36.372963,4.755802
37.084406,-0.410171,-30.181636,27.445414
37.117350,-6.261659,-19.298852,28.591081
37.150839,6.687394,-16.357919,18.994927
37.184111,12.814973,-2.483025,8.412328
37.217525,20.909459,-3.013659,-4.275598
37.250715,23.794875,-1.070546,-10.814396
37.284025,6.369402,-6.556606,-14.194232
37.317618,-2.967270,-9.908159,-22.918566
37.350813,-8.901960,-7.918506,-18.103205
37.384098,2.862221,-17.451660,-6.453053
37.417356,3.676727,-21.754942,14.735341
37.450810,0.916114,-17.271041,23.682942
37.484535,-1.085959,-19.478573,24.118852
37.517499,7.205308,-15.596237,18.172340
37.550745,11.044847,-4.870130,11.782886
37.584552,21.317236,-8.090147,-12.931395
37.617837,29.770716,-4.024348,-14.078259
37.650758,-0.097418,-5.028153,-23.574899
37.683966,-7.278483,-8.856917,-20.602991
37.717442,-1.902411,-8.974985,-12.842956
37.750850,2.688485,-14.979708,4.661976
37.784006,-1.908397,-39.632186,19.831432
37.817378,-0.704519,-25.213041,21.943193
37.850845,-1.723288,-20.492853,24.265053
37.884161,14.578366,-13.261807,12.848643
37.917621,21.729952,0.161764,-2.245991
37.950806,22.128600,1.301145,-16.949907
37.984024,8.722687,-8.421606,-14.645705
38.017490,1.696203,-1.724336,-13.638907
38.050416,-1.036277,-5.386398,-15.050489
38.084045,6.218263,-6.641902,-4.470134
38.117938,4.379450,-15.793766,7.870172
38.150673,-0.550237,-31.262207,13.503181
38.184022,4.820598,-5.850441,14.264265
38.218628,-1.889392,-22.147605,14.060751
38.250722,14.161011,-12.299303,10.767858
38.283799,13.304305,-0.025140,-2.395784
38.317647,12.071697,-7.476311,-20.846609
38.350823,22.525603,-3.099405,-21.896803
38.384180,7.279830,-4.389626,-22.624816
38.417496,-13.190876,-8.696949,-12.885455
38.450969,5.296762,-7.891570,-3.393303
38.484427,0.865086,-23.553052,8.026249
38.517239,6.452305,-34.022970,19.463310
38.550763,-0.426632,-17.898194,19.998732
38.584189,5.304842,-20.748892,19.388638
38.617326,21.869718,-12.664732,4.528644
38.650735,15.474427,-0.269208,-9.726343
38.684423,22.471283,-2.906066,-12.237202
38.717435,4.220829,-8.258645,-15.449138
38.750872,-3.185300,-2.450403,-10.479496
38.784424,-2.182842,-4.808626,-7.790711
38.817323,1.358608,-9.450401,-1.321647
38.850834,2.413142,-17.993517,9.824209
38.884263,3.931419,-12.764543,12.115692
38.917436,5.253515,-13.106477,14.005832
38.951223,12.756762,-13.334384,15.552242
38.984122,16.618149,-5.233612,14.699726
39.017362,20.651774,-2.434840,-2.703300
39.050690,7.721576,-4.496022,-16.217554
39.084312,5.357966,-4.405638,-20.553459
39.117413,-0.544251,-3.869467,-14.595126
39.150424,-0.473470,-6.398433,-8.123517
39.184299,4.158727,-11.636385,1.887297
39.217327,-0.181517,-37.956335,18.452771
39.251105,-4.134784,-18.145404,25.309710
39.284447,-2.007011,-20.905120,20.919785
39.317421,9.932401,-13.013100,10.202955
39.350937,21.789809,-2.323356,-4.024048
39.384661,32.595077,1.796164,-11.355356
39.417459,15.913779,-3.853456,-14.823481
39.450692,1.857069,-7.423787,-22.867687
39.484319,-1.328530,-17.516305,-12.972697
39.517358,4.306125,-25.595827,-6.088972
39.551160,-3.582303,-21.743719,29.645315
39.584630,-9.586875,-9.164284,22.872475
39.617357,-1.931591,-10.329404,22.951337
39.650820,6.194769,-14.538560,12.226427
39.684004,20.680356,-10.889218,-2.226388
39.717526,23.713170,0.548741,-26.211309
39.750667,12.451041,-4.354161,-22.380449
39.784251,-1.637243,-8.823547,-27.013096
39.817378,-4.690109,-11.320788,-21.610537
39.850893,2.378275,-42.753140,3.586044
39.884613,-4.127152,-27.548069,29.463349
39.917910,-7.756293,-16.258407,30.125819
39.950645,0.863290,-17.613124,20.467713
39.984254,14.357642,-3.089079,14.286113
40.018195,23.995695,-4.472079,-8.173947
40.050694,24.573766,0.379345,-9.903071
40.084298,0.592736,-3.879194,-13.519043
40.117331,-5.212662,-9.681450,-14.006580
40.150693,-0.057463,-17.071417,-7.527340
40.184187,-1.571401,-22.137729,8.119028
40.217632,2.268737,-18.737242,22.427437
40.250647,-0.052225,-13.947770,23.404307
40.284502,2.007460,-13.330643,16.422266
40.317371,10.521246,-7.645707,10.285858
40.350693,32.904239,1.195049,-18.370617
40.384259,14.284616,-1.945957,-19.305437
40.417375,9.947216,-1.497327,-18.184761
40.451042,-4.687865,-6.032406,-8.528750
40.484277,-3.345717,-7.460599,-5.426652
40.517414,4.562913,-19.915681,6.240859
40.550970,-3.652635,-28.816742,15.853623
40.584258,-3.756038,-19.124219,23.981030
40.617311,7.351958,-22.141320,19.102820
40.651101,20.793336,-1.970498,2.446961
40.683748,16.483769,3.691093,-9.544526
40.717524,28.968181,1.083116,-12.313520
40.751127,8.876071,-8.059021,-13.272132
40.784181,-2.569968,-7.447580,-12.036530
40.817355,2.804907,-9.724248,-15.335260
40.851304,-0.079460,-14.769011,-2.808200
40.883892,3.124395,-22.834167,5.655606
40.917429,10.869166,-13.809500,15.319248
40.953826,-7.761830,-12.899821,21.871215
40.984121,6.562891,-19.662335,15.628410
41.017503,12.496383,-11.485246,8.421007
41.051597,23.542876,-3.340480,-14.136620
41.084128,17.431159,-2.589422,-29.583363
41.117130,8.434176,-3.543994,-23.150512
41.150388,-6.197014,-7.897407,-12.945911
41.184072,-5.769185,-11.590894,-7.854609
41.217498,4.505599,-19.515984,8.867841
41.250841,-1.782098,-31.989173,16.937487
41.284028,-0.081555,-18.468035,22.737498
41.317382,-1.547757,-17.507177,26.031139
41.350602,18.148697,-15.816062,6.956601
41.383989,17.476201,3.338384,-6.823868
41.417332,23.558888,7.172237,-10.740473
41.450611,11.045146,-9.631619,-16.596301
41.484000,2.512655,-14.395053,-17.501790
41.517356,-0.502052,-15.133541,-13.675270
41.550688,3.964042,-25.410420,-1.140130
41.583986,-1.855124,-22.618382,24.119450
41.617360,-2.946769,-15.477720,14.621313
41.650692,-8.393473,-4.350719,19.931543
41.684012,2.633117,-7.067786,15.414271
41.717449,23.760457,-8.187265,3.297682
41.750685,28.338184,6.032406,-21.281621
41.784198,10.540101,-1.957928,-23.259452
41.817422,6.797232,-8.374917,-19.968355
41.850600,-2.357625,-24.136958,-11.111288
41.883998,6.394842,-41.742451,2.748492
41.917347,4.714202,-35.660662,27.145829
41.950604,-1.487601,-11.082108,22.535779
41.984006,-5.633608,-4.252853,23.939130
42.017343,-3.371755,-8.476375,14.097563
42.050650,17.423826,-11.015068,-1.351425
42.084083,12.459870,-7.380989,-5.976440
42.118649,31.317725,2.022424,-20.919934
42.150693,16.638201,-1.620483,-16.159044
42.184575,0.151289,-7.628947,-6.612273
42.217447,-0.836504,-21.799236,-6.330645
42.250694,10.523042,-40.829779,7.350162
42.284636,-10.446873,-6.258068,34.626480
42.317523,-14.906533,-20.618254,25.995225
42.350839,3.112124,-14.106392,13.102287
42.384139,5.319807,-4.754755,12.678499
42.417191,18.085547,-11.031828,0.304673
42.450768,32.805026,-0.279383,-21.018998
42.484105,29.334956,2.726195,-17.967928
42.517395,-3.753195,-8.851231,-17.677621
42.550767,-1.040018,-10.364719,-14.277733
42.584020,3.811855,-15.063508,-2.098892
42.618266,-6.307600,-46.175773,16.090208
42.650875,-9.087667,-18.941505,26.678045
42.684022,0.578969,-27.158848,24.733435
42.717414,1.116486,-18.739038,19.555789
42.751089,11.185661,-9.138096,11.070735
42.784353,23.139289,-8.719246,-2.390995
42.817899,35.214577,-3.805570,-14.201714
42.850914,11.163813,-2.923125,-15.336307
42.884157,10.405422,-2.583885,-25.843038
42.917616,1.779853,-5.543972,-11.211998
42.950910,4.175038,-15.163021,-1.875924
42.984015,-8.173647,-34.613611,16.552006
43.017713,-14.744619,-20.809647,32.482396
43.050912,-2.681751,-27.628877,25.433615
43.083719,9.130165,-13.743208,19.559381
43.117858,19.632706,-6.985333,9.284447
43.152026,39.191937,-2.143785,-11.963654
43.184059,29.779545,-3.717580,-10.403477
43.217360,7.964447,-3.469172,-9.511455
43.250910,-8.784640,-5.879920,-9.351487
43.284148,-0.819744,-5.495787,-8.177688
43.317464,0.157574,-17.300969,0.411518
43.351456,-19.682238,-41.163782,16.289832
43.383997,-2.435888,-29.445093,27.452298
43.417315,9.115650,-25.137471,21.870466
43.450846,15.878015,-6.102439,18.806976
43.484132,12.962072,-4.743532,7.262920
43.517506,35.495756,-0.311706,-13.512309
43.551097,13.036145,-8.596389,-19.622081
43.584852,-0.153833,-4.812368,-17.192927
43.617325,-9.513700,-2.875838,-15.492983
43.650842,1.586066,-8.395418,-9.047413
43.684204,5.416626,-15.872029,1.402005
43.717489,-13.963782,-38.017688,19.520174
43.751220,5.560882,-29.589648,27.061580
43.784702,-0.403437,-21.763023,21.737134
43.817361,13.876839,3.148488,13.479088
43.851575,26.073039,-7.339987,0.342233
43.884232,33.608908,-6.543886,-9.593609
43.917428,0.485292,-4.669309,-11.841546
43.951595,-2.089016,-6.617959,-22.557776
43.984125,-5.174952,-8.883105,-17.578407
44.017362,2.458783,-17.516156,3.313394
44.051382,-12.352726,-23.869696,27.204489
44.084705,-10.945184,-31.013800,31.063631
44.117418,1.263735,-26.052837,14.801633
44.151092,17.960446,-5.924963,10.159260
44.184523,30.745939,-11.890479,-5.841612
44.217322,37.443658,0.115973,-11.807577
44.250843,9.120738,-5.227627,-10.496106
44.284032,10.294986,-12.354073,-14.832160
44.317732,-4.247166,-8.070094,-11.071633
44.350906,3.003783,-9.640298,3.523942
44.386446,-15.898516,-36.720733,17.709046
44.418121,-8.684678,-16.055042,27.192218
44.450647,-4.702380,-17.577210,19.812726
44.485026,14.376647,-24.238566,12.970452
44.518027,23.573253,-11.762833,-0.702125
44.550648,31.850304,4.066996,-16.576697
44.583977,26.310373,-2.950809,-23.249127
44.617582,3.592029,-12.030694,-21.217125
44.650647,-7.865233,-12.750327,-16.845755
44.684074,-4.812368,-14.675185,-13.197011
44.718333,0.186605,-40.173744,1.737654
44.750667,-0.952477,-24.280466,20.005017
44.783980,-6.771942,-19.612205,24.374741
44.817501,-1.445102,-17.946828,17.812299
44.850669,0.619073,-21.028276,21.324868
44.884011,24.322516,-11.768221,8.618686
44.918235,46.221115,9.454890,-14.786818
44.950669,30.879121,2.501132,-14.502048
44.984020,-6.139252,-12.548908,-15.768326
45.017730,-11.891975,-13.792141,-26.356014
45.050756,-6.278270,-17.739722,-5.616100
45.084149,-19.067055,-24.751243,21.747161
45.117632,5.928854,-11.672299,36.109741
45.150863,3.333147,-35.406718,21.596320
45.184050,13.041981,-29.864243,27.881923
45.217784,29.857210,-20.085226,-3.347213
45.250875,42.088426,0.913869,-21.044138
45.284028,20.544929,-7.699130,-19.915082
45.317684,-25.177426,-4.096775,-25.183412
45.350841,-1.813972,-2.908610,-18.299387
45.385964,-40.083210,-11.718240,20.906915
45.417567,-4.581468,-22.868884,29.051831
45.451189,4.203321,-38.497743,16.320958
45.484011,4.118174,-40.225521,27.466514
45.517497,25.218278,-12.813177,-2.700457
45.551188,40.593493,9.011049,0.039206
45.583995,16.960681,3.614925,-1.529800
45.617102,3.357688,-4.272456,-18.548692
45.650902,14.286412,-3.370258,-15.361148
45.684055,2.338620,-2.334131,-6.116805
45.717572,-6.592221,-11.258387,-0.117769
45.750467,4.029585,-13.279764,-5.985868
45.784216,11.000253,-9.078239,-6.534758
45.817512,4.100366,-6.333937,2.359121
45.850719,8.191455,-3.076210,2.978044
45.884413,8.585614,-7.434561,-1.988156
45.917516,10.573022,-4.405039,3.230492
45.950698,12.889944,-3.554768,-0.229852
45.984536,5.053742,-3.448971,-0.247061
46.017577,7.525843,-3.783423,1.097182
46.050817,11.079414,-3.972422,0.865984
46.083818,9.445762,-4.290114,1.432532
46.117124,8.654001,-6.086577,0.832913
46.150819,9.483472,-10.101946,-0.327568
46.184121,11.591343,-13.117551,-0.662020
46.217506,7.395504,-10.739425,3.728354
46.250740,4.641475,-9.030353,9.615457
46.284507,1.737504,-9.221597,10.389859
46.317515,-4.242826,-12.297657,14.444585
46.350688,-0.847428,-14.331904,9.285195
46.384399,11.376006,-14.320381,0.227158
46.417541,21.228947,-4.136879,-1.268224
46.450695,18.744724,-4.801444,3.619564
46.484181,14.816747,-1.318803,-2.707191
46.517524,13.740515,-6.063532,-6.163494
46.550700,9.556049,-9.048759,-9.603186
46.584200,9.101883,-13.210779,-10.960448
46.617485,10.159260,-11.545851,-15.974684
46.650690,8.929943,-12.180188,-14.748659
46.684220,13.283954,-7.672194,-11.656288
46.717629,12.087259,-5.367543,-13.224845
46.750824,9.118493,-6.646840,-8.852278
46.784250,-7.476012,-9.015389,-2.550963
46.817642,-10.469170,-6.215569,1.503762
46.850693,-7.970732,-6.129225,3.589785
46.884151,-3.096861,-4.454571,3.295736
46.917652,-5.931098,-3.112723,5.958333
46.950691,-5.977039,-1.426397,7.477209
46.984508,1.412779,-2.962182,5.131406
47.017609,2.880327,0.757343,5.524967
47.050649,7.309010,0.483646,7.827374
47.084149,12.609364,-3.358886,4.281584
47.117515,5.804351,-8.756656,4.458612
47.150694,-3.934861,-26.299299,11.185361
47.184024,8.353967,-25.822985,6.483131
47.218167,10.113619,-25.952127,4.112787
47.250802,10.038647,-26.969849,11.542559
47.283996,30.402060,-15.824592,10.304713
47.318057,36.895067,-2.820021,9.129716
47.350670,46.612281,1.300098,-11.489137
47.384078,18.061754,-6.874597,-20.120242
47.417508,-3.369959,-18.702076,-20.564832
47.450750,-8.259991,-26.454030,-35.778282
47.484397,-19.005552,-24.869910,-26.649613
47.517387,-10.102844,-22.396461,14.336842
47.551132,15.208362,-28.705408,0.120163
47.584060,14.340284,-14.741027,11.890180
47.617520,7.752253,-7.220571,13.570969
47.650821,11.119070,1.301594,13.316726
47.683827,12.104917,0.576425,7.319934
47.717558,8.917373,0.787421,5.473041
47.750727,11.151093,-0.440250,1.475330
47.784188,3.305164,-4.912329,-1.156740
47.817296,5.805099,-6.041385,-2.363610
47.850724,8.855870,-7.421991,-13.352191
47.885135,8.148657,-3.546388,-0.014815
47.917205,10.150131,-7.047584,-5.549359
47.950656,8.835817,-0.772607,1.522767
47.984295,6.315830,-0.796400,0.256638
48.017469,3.321176,-0.752854,-0.679678
48.051092,5.360061,0.028731,1.380755
48.084137,3.579459,-2.490508,-1.386592
48.117417,2.665739,-5.166123,-0.707362
48.150854,3.913911,-8.250863,1.065009
48.184132,2.954999,-15.384492,4.635490
48.217356,1.753516,-17.317280,9.239704
48.251111,3.950873,-13.849305,11.255843
48.284126,4.442301,-17.817088,13.806208
48.317127,6.634869,-19.558632,16.406104
48.351090,9.102930,-15.581273,13.676467
48.384149,24.100595,-12.570157,3.876501
48.417362,30.532099,-1.698447,2.113258
48.451024,24.025474,-7.828271,-2.423318
48.484038,18.889878,-14.217576,-12.438471
48.517594,10.279423,-16.072700,-18.699532
48.551086,0.428278,-12.001215,-14.091876
48.583987,-6.118900,-12.927804,-15.954332
48.617561,-12.598140,-10.579307,-9.380967
48.651087,-11.704323,-8.314461,-0.004639
48.684018,-5.794624,-3.344819,2.427209
48.717673,-3.217174,-2.659754,2.094552
48.751089,-2.449805,-1.646372,6.167833
48.783892,1.965111,-6.245797,7.260975
48.817360,11.585507,-26.629860,-2.189426
48.850844,20.183092,-32.109186,5.276410
48.884761,2.957693,-19.174948,11.540464
48.917422,-8.385392,-26.752717,7.846378
48.950846,7.100558,-24.698269,10.020241
48.984201,17.379532,-27.408303,4.169801
49.017362,18.674841,-18.457410,14.644657
49.050859,30.294915,-18.894218,0.358844
49.084195,46.509028,-0.630146,-9.746395
49.117520,33.870035,-0.315597,-16.443964
49.150752,4.530440,-11.410724,-18.651497
49.184060,-7.247507,-21.826471,-11.729164
49.218306,-19.165371,-24.938446,-26.862854
49.250914,-3.923339,-13.550468,-16.700153
49.284442,14.875556,-40.057172,7.004337
49.317940,11.160371,-19.355118,8.570650
49.350912,13.576506,-9.511904,6.294731
49.384185,8.621678,-2.152015,11.874467
49.418048,6.057696,-0.970883,9.040679
49.450607,9.817176,2.685792,6.178608
49.485150,7.559962,3.990678,4.129397
49.517678,4.630102,0.787571,3.117512
49.550839,4.348624,-4.490336,1.357710
49.583837,7.065242,-7.819143,0.102805
49.617501,6.490613,-7.648251,-1.172901
49.650860,6.133565,-7.406727,-2.268288
49.684048,7.242868,-5.963870,-1.739300
49.717952,9.475242,-6.479390,-1.567660
49.750439,8.633650,-7.004038,-0.731455
49.784028,5.731624,-8.399908,0.284771
49.817754,5.498331,-8.365939,1.262986
49.850399,6.519644,-9.544377,0.649301
49.884039,7.358243,-7.544997,0.617427
49.917863,6.671831,-9.609172,0.833661
49.950463,6.692182,-9.774528,2.947367
49.984043,3.960001,-9.418228,5.963271
50.017743,5.457778,-11.505448,5.798814
50.050875,6.232329,-13.974407,7.746417
50.084167,6.071314,-16.159343,11.934474
50.117599,8.067700,-13.706995,10.801677
50.150461,15.069194,-13.761315,8.630956
50.184104,23.646578,-6.745754,3.624801
50.217780,25.034068,-6.924428,0.898756
50.251497,23.465810,-15.960019,-11.244919
50.284028,13.955252,-17.135315,-17.878591
50.317636,8.288424,-19.131103,-21.359885
50.351036,5.306788,-23.155600,-21.512371
50.384144,-16.557992,-20.269436,-14.257381
50.417755,-16.352083,-10.226599,-3.298579
50.450808,-9.477636,-6.726002,1.713412
50.484244,-3.946384,-9.026612,5.915086
50.517839,2.090961,-7.312003,6.470711
50.551153,15.287374,-28.186596,-1.713861
50.585130,18.011324,-26.553243,9.900078
50.617578,11.314354,-19.066606,13.085378
50.655626,5.373529,-20.001725,11.822092
50.684059,9.436634,-19.893533,14.343127
50.717452,5.490699,-21.044288,7.833958
50.750992,18.491080,-24.693032,10.889218
50.784059,18.495569,-13.277070,5.373828
50.817516,28.578361,-11.031977,-1.991897
50.850804,38.544432,-8.201481,-11.819399
50.884470,19.722342,-14.643909,-18.787971
50.917585,1.321497,-19.624625,-22.090142
50.950667,-13.272880,-23.272172,-22.212550
50.984096,-1.791675,-18.375555,-21.259773
51.017756,14.113575,-11.500958,-15.952986
51.050747,-3.805570,-21.813901,17.720867
51.085118,1.233656,-23.681595,23.644483
51.117484,-14.755094,-17.255627,27.017585
51.150644,-10.392104,-17.292290,17.678369
51.184516,8.857366,-28.170584,9.301357
51.217097,29.276296,-15.771618,3.257577
51.250661,30.423908,-0.825281,-1.804245
51.284474,39.446779,0.443392,-17.323715
51.318112,22.170201,-4.623219,-20.833890
51.350694,-0.059857,-11.103956,-21.573724
51.384185,2.737418,-9.856083,-10.813499
51.417475,-7.148444,-13.866813,-5.368590
51.450693,4.462502,-35.694781,-8.205970
51.484426,3.688699,-43.012620,24.543089
51.518253,-21.479449,-19.801503,25.610492
51.550694,-2.819423,-24.474703,17.976757
51.584828,15.806186,-35.947528,13.482680
51.618138,28.125841,-17.576612,2.107272
51.650697,54.850724,14.063444,-10.628390
51.684308,41.420419,4.466692,-19.439966
51.717633,21.307809,-7.585251,-23.375725
51.750861,2.779318,-13.337077,-12.766788
51.784453,-10.307556,-28.458198,-5.556692
51.818142,-15.876368,-43.928435,15.800350
51.850698,-23.232666,-16.489755,25.442892
51.884119,-5.230620,-30.958881,30.247179
51.917773,21.197223,-24.618509,22.984857
51.950678,52.076194,-10.237523,-19.631808
51.984028,34.273173,-2.066719,-38.057942
52.017761,12.981975,-4.340543,-43.603860
52.050958,4.109944,-13.780320,-20.490309
52.083728,1.121275,-16.680699,11.527894
52.117613,-16.811338,-40.396413,24.737176
52.151876,-14.846526,-19.304389,26.770824
52.184115,-14.030523,-29.464996,22.902404
52.217931,18.050980,-39.522947,11.883296
52.251842,25.943598,-8.574990,-12.273864
52.284070,50.860345,13.970217,-3.576466
52.317440,23.973698,-2.185236,-20.341564
52.351351,-6.012504,-4.735601,-23.082425
52.384104,7.350013,-12.407346,-16.652866
52.417426,-4.430778,-14.210543,12.476331
52.451724,-13.226341,-28.642708,29.141168
52.484042,6.031808,-11.227860,19.917177
52.517638,-2.180447,-29.617033,24.816637
52.550740,8.293511,-17.858689,8.070244
52.584057,38.165236,-0.546496,-10.198765
52.617512,30.278903,-0.843537,-19.845947
52.651228,13.456043,-15.484603,-30.136593
52.684288,-19.500421,-14.507734,-30.754319
52.717462,3.323570,-19.633903,-25.235637
52.751034,-9.034394,-56.850553,31.625989
52.784740,-13.510663,-16.818820,39.205255
52.817322,-10.601455,-8.826091,32.109486
52.851198,-1.614647,-11.782137,30.496784
52.883790,15.958971,-13.868759,4.261382
52.917418,37.918625,7.027233,-23.411340
52.951412,19.035930,0.131686,-21.775892
52.984247,13.469661,-9.557396,-18.236238
53.017494,0.681025,-13.553760,-16.397874
53.051237,-4.242378,-19.285983,8.179334
53.084306,-17.063785,-12.531400,12.761700
53.117598,-2.301359,-17.630483,24.804366
53.151149,-8.699942,-18.544353,27.108867
53.184703,1.095087,-24.679264,22.820849
53.218027,27.567523,-25.908581,2.713924
53.251122,50.542504,1.325088,-10.012011
53.284468,43.378198,-1.980075,-26.854923
53.317426,0.527641,-13.605387,-27.202095
53.350532,-3.978707,-23.909950,-24.345112
53.384362,-0.045043,-59.304847,4.620974
53.417327,-12.279999,-31.933206,41.815028
53.450823,-24.621053,-12.852833,31.488467
53.484366,-20.455592,-17.486527,24.013802
53.517447,-8.956280,-16.215010,16.043969
53.550767,32.185055,-13.315379,-3.749903
53.584571,43.847179,4.919362,-8.371924
53.617949,31.604441,-7.801036,-20.424616
53.650751,-4.590746,-13.259413,-20.732881
53.684104,9.904867,-9.776323,-24.977054
53.717996,-8.989650,-37.348336,9.565776
53.750858,-21.948430,-19.441312,44.718999
53.784148,-20.832244,-11.590594,22.856015
53.818104,-18.240428,-24.147882,27.715221
53.850839,1.028047,-34.433740,16.479579
53.884223,43.762032,-15.382098,-11.577426
53.918169,47.417061,-1.779404,-16.122381
53.950784,37.865202,-9.293426,-18.124155
53.984178,-3.825323,-16.666932,-29.201774
54.017427,11.301933,-12.750327,-23.791283
54.050880,-1.318654,-51.465502,17.432356
54.084149,-23.975344,-35.468222,38.230032
54.117701,1.727628,-30.918926,22.905846
54.151025,-2.548569,-4.639081,26.218342
54.184065,-3.525289,-11.608103,21.281771
54.217579,37.415974,-9.260205,-13.153914
54.250917,37.981774,3.927828,-9.195260
54.284076,10.207145,1.310274,-11.508590
54.317419,4.471032,-4.512184,-18.232197
54.351086,3.402432,-9.330387,-11.400698
54.383798,2.584783,-19.497279,-2.859527
54.417791,-0.201569,-27.896737,2.224293
54.451006,-2.238958,-18.328867,30.900820
54.484046,-12.939027,-15.354264,19.896825
54.517431,-1.013532,-6.439136,22.294554
54.550804,13.221403,-10.313093,10.733589
54.584077,28.782923,-13.240258,-0.291953
54.617727,44.070895,2.354931,-17.967479
54.650772,25.001745,-7.289557,-17.569578
54.684106,-12.212361,-14.709902,-21.609339
54.719986,-1.938325,-24.076054,-18.533129
54.751410,-6.161698,-46.207797,7.369765
54.783975,-11.560217,-44.067154,35.852954
54.817317,-25.858301,-10.578260,32.503944
54.850591,-7.132282,-24.824268,26.980324
54.884056,13.065475,-24.613122,19.260544
54.917040,43.246213,-8.218840,-12.036830
54.950629,43.709059,0.057313,-11.900804
54.984108,24.406465,-4.901854,-20.310439
55.017316,8.487299,-8.920964,-20.006214
55.050484,-10.076806,-15.843447,-16.470301
55.083736,-2.462075,-32.424334,9.666336
55.117393,-23.120284,-6.994461,30.456081
55.150665,-24.079047,-19.073939,28.510872
55.184896,14.497259,-36.955373,13.049164
55.217359,15.310868,-13.156608,3.664756
55.250913,35.452808,-10.832803,-15.395865
55.284480,47.186312,0.685215,-11.757746
55.317393,31.725352,-3.331651,-18.662870
55.350690,-13.467566,-8.976332,-15.195792
55.384292,2.083179,-5.747187,-17.882931
55.417581,-1.210013,-21.210541,7.575525
55.450941,-26.286280,-51.781248,25.866382
55.484308,-6.822821,-12.114045,16.815528
55.517398,6.316728,-27.124281,18.308665
55.550764,24.351097,-16.544674,6.118900
55.584809,26.468695,-0.171940,-11.502006
55.617202,22.957173,-2.374534,-20.934300
55.650647,-1.446598,-7.047884,-12.688225
55.684563,8.166764,-6.273631,-14.135422
55.717456,-1.667322,-14.844281,9.316171
55.750711,-13.010407,-21.828417,18.486740
55.784568,11.529091,-17.781024,5.744344
55.817393,2.448757,-13.634268,15.697994
55.850693,15.034328,-9.372138,11.757446
55.884566,17.010662,-3.248449,13.571568
55.918112,26.990500,3.206549,-19.700195
55.950903,19.809135,-1.640685,-26.481115
55.984448,-17.753190,-7.887081,-17.655773
56.017467,4.280536,-23.813580,-7.808369
56.050746,-8.563916,-33.690912,27.520086
56.084477,-8.480715,-37.703139,30.523121
56.117841,1.682436,-20.128323,22.740191
56.150649,7.712298,-23.039926,12.896080
56.184429,33.816762,-5.805847,3.242164
56.217687,38.679859,10.622704,-11.982809
56.250647,12.600834,-4.485547,-18.327819
56.284303,-8.748426,-10.807214,-14.821984
56.317611,0.852366,-12.146368,-4.824339
56.356063,-0.409872,-30.199892,9.806851
56.383727,-1.290820,-27.455590,14.161011
56.417829,-12.505062,-11.141516,23.851290
56.450830,8.750371,-10.086832,13.785707
56.484083,20.839726,-7.553377,13.998649
56.518189,31.896544,-0.460601,-20.469210
56.550424,31.130671,3.294539,-23.417625
56.584086,7.091879,-7.994076,-26.514934
56.617673,-5.964020,-16.178647,-19.654853
56.650661,2.781264,-27.390346,-2.390995
56.684108,-13.316576,-46.396347,24.528275
56.718100,-3.482491,-16.942275,30.680246
56.750460,4.662575,-15.174244,20.105428
56.784050,12.737159,-7.231046,15.195493
56.817709,21.536164,-3.917054,-0.969836
56.850765,23.452791,6.485974,-8.976482
56.884105,11.904994,-2.855038,-16.041724
56.917843,-4.392020,-4.958718,-11.053975
56.950778,-0.622814,-7.648251,-5.604727
56.984648,-6.296227,-23.532401,14.641066
57.017470,6.417737,-22.868734,20.706843
57.050885,18.372562,-9.474045,11.015068
57.084061,2.495745,-14.766018,11.227860
57.117517,17.426370,3.896403,5.472742
57.150855,18.088390,3.147590,-10.053462
57.184101,20.426412,-1.057676,-19.304389
57.217764,11.617530,-7.266661,-15.595788
57.250489,-10.174673,-12.248574,-13.544333
57.284540,-4.317349,-23.173258,-8.154343
57.317999,6.639508,-37.395174,13.442426
57.351252,-4.392320,-13.713579,19.221188
57.384151,-5.186475,-7.975071,18.669454
57.417509,-1.474133,-10.778632,10.533517
57.450904,9.832589,-8.489544,13.385412
57.484430,17.214925,-1.288725,-8.636493
57.517556,33.015873,4.623668,-15.015622
57.550643,19.955336,-5.391037,-12.549207
57.584135,-11.104704,-5.094594,-11.880303
57.617516,1.041665,-16.100833,-5.695859
57.650675,3.802727,-28.893060,5.717109
57.684191,3.194278,-4.155585,14.744918
57.717624,-1.824148,-23.831687,15.944157
57.750961,3.715784,0.849224,15.060964
57.784057,9.626531,-2.173414,6.598655
57.817517,28.929872,-0.062850,-13.866963
57.851043,37.117736,5.955640,-16.456983
57.884038,-2.052203,-9.995700,-15.924853
57.917847,-1.818611,-17.586039,-15.518423
57.951068,-4.373165,-33.227468,-5.108661
57.984882,-1.006199,-43.258484,26.275057
58.017459,-9.934496,-5.775769,22.655493
58.050645,9.474194,-10.390608,15.881157
58.083777,-2.946769,-7.174930,15.840005
58.117513,11.058165,-1.321497,12.517184
58.150692,17.956405,-0.471675,-8.570201
58.184132,34.413837,3.006476,-12.193506
58.217421,17.329401,-9.108617,-11.230254
58.250709,2.670229,-16.650022,-12.441315
58.283879,-2.116849,-19.683135,-5.311277
58.318348,10.278824,-23.717659,-1.565864
58.350536,-5.353776,-16.320958,21.989283
58.384104,-11.066096,-10.033111,15.553439
58.417804,-0.807024,-7.424834,11.061008
58.450721,5.285539,-10.736582,11.428531
58.486638,29.312360,-1.094788,-4.247765
58.517580,30.525964,1.369083,-24.169581
58.550644,24.469016,0.752255,-16.286989
58.584198,-3.196822,-10.541747,-11.782886
58.617340,-3.923937,-8.995935,-11.159024
58.650853,3.811406,-25.796499,5.828144
58.684257,-5.818118,-38.183643,24.496550
58.717398,-0.399247,-19.264883,20.350543
58.750834,6.618259,-12.834876,16.234015
58.783874,6.572169,-2.863418,6.881630
58.817209,16.709730,-0.471824,-4.706271
58.851586,21.913863,2.630274,-12.038925
58.883776,18.105599,-1.937876,-15.582170
58.917385,2.205887,-9.398026,-10.482039
58.951075,-1.896425,-7.288360,1.981572
58.984178,-4.749667,-24.322516,13.852897
59.017368,3.245756,-24.568379,22.008437
59.051077,13.289042,-14.059254,8.737352
59.084151,3.668198,-11.435265,17.358731
59.117607,9.610220,-2.452648,6.598805
59.151501,26.836368,3.634079,-12.810035
59.184110,20.200451,1.921116,-26.678793
59.217362,9.766297,-3.599811,-18.757444
59.251074,-3.856598,-11.719587,-14.596921
59.284569,0.416157,-14.796246,2.401769
59.317452,-0.179721,-42.311693,20.040333
59.351402,-4.788425,-32.274542,24.829356
59.384186,-6.970668,-14.106092,16.973102
59.417499,8.434026,-17.165842,7.033368
59.451082,19.161779,-3.299028,5.321303
59.484660,16.038282,4.237140,0.871820
59.517490,35.262313,3.083692,-17.698122
59.550895,22.017715,-5.474089,-12.926607
59.584196,2.362114,-11.188205,-6.390652
59.617491,-1.148510,-20.979043,-0.811065
59.651131,-7.216381,-23.949905,12.974492
59.683827,7.248704,-16.535246,13.659259
59.717601,-1.504061,-11.971286,16.074196
59.751067,3.228846,-3.363375,9.257511
59.784322,23.714965,-1.354568,-7.865981
59.817362,30.543173,5.586171,-27.702052
59.850831,22.769820,-5.016032,-23.884211
59.884384,0.326820,-13.944328,-15.971392
59.917424,-4.700734,-31.641253,-7.163558
59.951015,4.765829,-43.164209,10.095063
59.984434,-0.809119,-11.726620,23.112503
60.017314,-6.294132,-12.044162,19.318605
60.050833,-5.385350,0.244517,20.387954
60.084049,3.773696,-11.781240,10.171231
60.117423,11.268264,-7.957862,5.307985
60.150836,14.722172,-8.063809,-3.911667
60.184674,39.878648,1.644277,-21.855053
60.217367,3.701119,-11.065348,-21.724864
60.250905,-4.603167,-6.835540,-24.939793
60.284270,0.356150,-18.971434,-7.148144
60.317432,-1.869340,-26.093091,2.947367
60.350893,-1.058724,-24.812447,35.142748
60.384834,-22.718792,-11.749964,24.448665
60.417503,-6.191776,-20.642796,16.219949
60.450914,5.192311,-24.915251,19.589459
60.484289,23.316466,-15.616289,3.923488
60.517576,42.041288,0.024541,-19.935433
60.550858,53.621407,1.807836,-20.555404
60.584155,3.136666,-10.056904,-23.752226
60.617650,-10.182305,-12.999333,-27.932352
60.650813,6.892704,-15.722087,-16.393534
60.684066,-5.714714,-55.978733,12.720099
60.718356,-19.198442,-30.882713,32.219922
60.750818,-0.765573,-12.478276,16.471648
60.784095,4.895569,-16.271575,12.492044
60.818072,7.414958,-8.129503,14.558313
60.850737,6.875196,-7.921798,3.417995
60.884267,32.292499,6.772092,-7.801635
60.918344,32.288758,2.877035,-15.135486
60.950739,13.033152,-4.083906,-8.607163
60.984253,4.024946,-11.406384,-11.097671
61.017894,4.262130,-20.083131,-6.574563
61.050590,5.756016,-25.190295,-4.427785
61.083746,-14.587045,-12.662637,10.091471
61.117591,-11.017013,1.544914,13.198209
61.150406,-0.849224,2.435439,9.763903
61.184094,10.900591,-1.306533,2.245243
61.217508,22.193994,-1.467399,4.952433
61.250918,7.956366,-14.527936,-10.225851
61.284160,8.026249,-28.738030,-3.611483
61.317845,9.733525,-27.809795,8.090147
61.350880,14.597669,-10.139806,3.776090
61.384466,16.892743,-0.172089,-5.447751
61.417486,10.320724,0.550536,6.994162
61.450864,0.927188,-4.151694,4.084205
61.484533,2.800119,-2.786352,3.382828
61.517448,5.175701,-1.100175,2.481379
61.550848,3.555816,-3.183654,1.442708
61.584539,2.814933,-9.243146,0.689255
61.617340,7.168945,-13.988174,-4.451728
61.650717,10.038797,-6.737225,-2.217110
61.684519,6.224398,-5.355272,-0.605455
61.717523,2.793086,-6.824018,-1.348133
61.750706,8.036425,-3.362926,-0.076468
61.784423,9.342508,-3.365021,-0.165056
61.817354,11.382591,-3.212984,-1.948650
61.850718,5.064965,-2.980289,-1.323742
61.884510,3.346016,-3.647098,-1.204027
61.917414,6.833744,-4.926246,-1.290521
61.950691,6.244899,-7.247358,-1.350677
61.984477,4.792315,-4.355657,1.013831
62.017445,5.348688,-4.567552,5.921222
62.050705,1.109154,-13.287246,10.344817
62.084711,-5.947260,-18.356102,13.687391
62.117396,-3.885030,-19.572250,8.603123
62.151096,5.700947,-27.240553,9.261851
62.184219,17.122296,-21.412709,5.930200
62.217425,15.351870,-12.420814,4.110392
62.251116,23.299257,-11.356104,-2.384710
62.284732,27.106772,-10.893707,-6.072960
62.317433,19.673857,-10.130079,-9.896936
62.350548,12.910894,-14.850566,-14.699576
62.384209,8.984862,-19.331923,-11.270957
62.417491,0.018556,-18.016113,-14.579712
62.450818,0.898756,-8.280642,-8.983216
62.484517,-1.279298,-6.024475,-7.141560
62.517367,-4.761788,-4.704026,-0.890675
62.550647,-7.678329,-0.611890,-0.313502
62.584241,-5.755417,-1.393924,-0.491876
62.617396,-3.259074,-1.679742,0.232395
62.650919,2.025417,-7.418100,-0.632690
62.684782,11.423743,-27.753529,0.842789
62.717793,19.601430,-25.792009,11.857557
62.750782,1.276754,-18.528191,10.655176
62.784468,-4.995530,-23.310181,7.903093
62.817668,6.248192,-20.474298,7.886333
62.850693,14.287609,-28.222360,8.902109
62.884495,21.194379,-17.734186,8.913332
62.917902,24.996208,-4.762985,7.126446
62.950694,47.656490,0.035765,-8.775212
62.984418,37.408642,-6.487171,-12.323246
63.017659,-4.650903,-15.880259,-15.851528
63.050694,0.754051,-19.255605,-29.862896
63.084312,-11.141815,-18.333057,-34.867555
63.117896,-8.897470,-12.693912,2.576403
63.150902,-13.630527,-55.715212,-21.162356
63.184398,54.188554,-44.200336,0.907584
63.217839,7.283272,-18.454417,9.748639
63.251056,15.906746,-2.537944,11.359845
63.284563,9.247784,-2.470455,7.374704
63.317283,8.763839,-0.589593,7.174930
63.350692,5.847298,0.426931,6.211978
63.384513,7.802533,1.660438,4.692354
63.417363,2.889605,-0.220723,3.176920
63.450803,-0.943798,0.248407,4.926246
63.486355,1.822651,-0.519710,1.791675
63.517383,3.771750,-4.755503,-0.264269
63.550873,6.976205,-8.030289,0.325773
63.584545,7.563403,-15.152546,-0.724870
63.617726,11.642371,-23.419121,-1.833276
63.650794,10.069923,-14.910423,-2.543631
63.684534,3.120504,-12.642285,-0.324426
63.717381,-1.835221,-11.740686,2.395484
63.750989,1.254457,-9.044420,3.819487
63.784285,5.146670,-9.398026,1.085959
63.817373,7.383383,-13.223349,-0.038009
63.850910,10.091471,-16.544075,0.046689
63.884302,14.974171,-9.629823,0.798644
63.917523,6.505577,-6.867713,3.281670
63.951312,3.476804,-7.208899,2.095001
63.984219,8.393024,-7.534073,5.396125
64.017702,4.609901,-10.485481,4.751463
64.051118,5.876628,-11.943153,2.602889
64.083761,2.511009,-12.865103,2.667236
64.117674,2.181196,-11.580868,2.381268
64.150844,2.263200,-8.674802,0.451323
64.184040,2.605433,-7.470326,-0.264569
64.217435,2.221599,-7.310357,-0.552033
64.251108,2.469857,-10.154621,-1.215699
64.284418,4.286672,-11.830023,-2.191222
64.317669,5.034138,-8.303388,-1.986660
64.351104,2.687288,-4.999421,0.565201
64.384377,1.584868,-4.344135,1.423404
64.417580,1.551049,-5.217900,1.151802
64.451092,3.890567,-8.186816,-0.286417
64.485064,6.295030,-10.077255,-1.277951
64.517789,8.163621,-11.807726,-1.536085
64.550861,7.074969,-9.939434,-0.443542
64.584524,4.715549,-10.109429,1.011736
64.617324,4.475521,-10.901489,1.645324
64.650847,5.366196,-10.531422,1.649963
64.684525,5.870194,-10.225103,1.209115
64.717522,6.424321,-8.856319,1.181581
64.750842,5.650667,-8.463955,1.087605
64.784490,5.389241,-8.942962,0.938561
64.817693,5.155648,-10.188590,0.803283
64.851008,5.015433,-10.847168,0.731155
64.884151,4.981614,-10.766511,0.805827
64.917725,5.265187,-9.778269,1.000064
64.950843,5.613257,-8.518425,1.123819
64.984187,5.187073,-7.413312,1.135940
65.017877,3.871413,-6.357730,1.099277
65.051022,3.300674,-6.089420,0.979712
65.084204,3.515113,-6.295928,0.865834
65.117849,4.233698,-6.971566,0.650348
65.150999,4.236841,-8.043757,0.613686
65.184213,3.810957,-9.243295,0.819145
65.217715,3.215977,-9.529412,1.162426
65.251033,2.376031,-9.463270,1.330027
65.284205,2.540788,-9.758815,1.393325
65.317796,3.413206,-10.486978,1.570802
65.351016,3.896702,-10.205799,1.693958
65.384188,4.038863,-9.686538,1.995040
65.417671,3.550578,-9.723350,2.126576
65.451081,3.436401,-9.489757,2.145581
65.484213,3.782974,-9.405508,1.906451
65.517741,4.943305,-10.162701,0.323827
65.550395,7.107441,-9.023769,-1.611355
65.584035,8.079971,-7.284170,-1.547757
65.617358,3.011864,-7.339538,-0.746868
65.651668,5.301401,-8.424449,-4.235793
65.684248,7.020200,-8.792271,-5.210118
65.717871,7.537216,-8.399608,-5.478578
65.751088,7.455661,-8.281540,-5.179442
65.784210,5.891293,-7.402388,-4.676791
65.817476,5.356619,-7.130935,-6.160950
65.851088,3.867223,-6.168731,-5.436229
65.884188,3.299178,-5.166722,-5.366046
65.917578,4.533433,-5.748983,-7.131983
65.951089,4.779147,-5.368141,-7.422889
65.984167,4.114582,-5.420666,-7.443988
66.017481,4.072383,-4.248363,-8.496427
66.050853,3.668347,-3.223908,-9.034394
66.084157,2.601094,-2.200948,-8.212405
66.117409,2.472850,-0.119265,-7.541556
66.150849,3.149834,0.159819,-8.675550
66.184298,3.550279,0.291355,-9.154258
66.217483,3.734190,0.885587,-8.865896
66.251092,4.607207,0.892919,-8.387786
66.284145,4.485398,0.538715,-8.153895
66.317814,5.152207,0.366476,-7.412114
66.350962,5.446255,0.765124,-8.170355
66.384240,6.416989,1.131151,-9.806102
66.418432,8.162873,-0.751208,-9.739810
66.451011,6.570971,-0.989439,-7.093375
66.484300,5.821410,0.029180,-6.123689
66.517701,5.721897,-0.100859,-6.756229
66.551015,5.170613,0.175232,-6.081340
66.584288,4.941060,0.014665,-6.221705
66.618148,5.864058,-0.918209,-7.102354
66.650649,5.607421,-1.715357,-6.932658
66.684262,5.928854,-2.659006,-7.113726
66.718398,6.369402,-2.187630,-6.463827
66.751852,6.694427,-1.768181,-6.723757
66.784275,6.989523,-1.626918,-6.901982
66.818739,7.014214,-1.105562,-7.195880
66.850786,8.820554,-1.226025,-6.474302
66.884054,7.437554,-1.461263,-7.066739
66.917449,4.980566,-1.213754,-6.667641
66.950708,5.497882,-0.469430,-7.453416
66.984384,5.010644,-0.715593,-6.922782
67.017480,5.696608,-1.480867,-7.281626
67.050731,6.095855,-1.786587,-7.872416
67.084299,6.392298,-1.988306,-8.549999
67.117575,5.344199,-2.601692,-8.773267
67.150826,4.317498,-1.900316,-7.430221
67.184616,5.125121,-1.649664,-8.207467
67.217497,5.047457,-1.110201,-7.967140
67.250820,5.044613,-1.189212,-8.837613
67.284568,4.845439,-1.854824,-9.334727
67.318012,5.376073,-1.968703,-8.864998
67.350821,4.792016,-1.891936,-8.588907
67.384555,4.377655,-1.585467,-8.040316
67.417917,5.882315,-0.653191,-7.571933
67.450822,5.866452,-0.407478,-6.578454
67.484515,4.570395,-1.416520,-6.602546
67.517590,4.465944,-2.366454,-9.131662
67.550693,6.183995,-2.299114,-10.066331
67.584433,5.974046,-1.108256,-8.711165
67.617484,5.031744,-0.866433,-6.774187
67.650851,5.023813,-1.611954,-7.473318
67.684561,5.752724,-1.909594,-8.268521
67.717164,4.715100,-1.465304,-8.315359
67.750707,4.359997,-0.908333,-8.190108
67.784509,5.081575,-1.176942,-8.607911
67.818426,4.734254,-1.132049,-8.343043
67.850820,4.761190,-1.103617,-8.301442
67.884515,5.062720,-1.255654,-8.603272
67.918024,5.030248,-1.472337,-8.773865
67.950982,5.270125,-1.706678,-8.806338
67.984504,4.973533,-1.628564,-8.451385
68.018134,5.111504,-1.593847,-8.351723
68.051159,4.957671,-1.477724,-8.127258
68.084559,4.711957,-1.329727,-8.010986
68.118324,4.775555,-1.112595,-8.009040
68.151200,4.918015,-1.145367,-8.329426
68.184510,4.851873,-1.354568,-8.601327
68.218846,4.778099,-1.188165,-8.332718
68.251106,5.014086,-1.124866,-8.459166
68.284564,5.161933,-1.174398,-8.356661
68.318419,4.996428,-1.008444,-8.241136
68.351147,5.268479,-1.006798,-8.364592
68.384530,5.303645,-0.965646,-8.332419
68.418504,5.186026,-0.924045,-8.244129
68.451063,5.111354,-0.811514,-8.213003
68.484669,5.265337,-0.911026,-8.287226
68.518001,5.250522,-1.006050,-8.223478
68.551347,5.074093,-0.909231,-8.057674
68.584174,5.197548,-0.758690,-8.223179
68.617372,5.219995,-1.010539,-8.184272
68.651286,5.163729,-0.997370,-8.225424
68.684311,5.102675,-0.738338,-8.010836
68.717585,5.202187,-0.788618,-8.380454
68.751222,5.224335,-0.905041,-8.294110
68.784420,5.134100,-0.930031,-8.186367
68.817485,5.128264,-0.898157,-8.161975
68.851090,5.274166,-0.867181,-8.043757
68.884159,5.096839,-0.875860,-7.958162
68.917437,5.408395,-0.910428,-8.292015
68.951142,5.219546,-1.068750,-8.115736
68.984954,5.120782,-0.959960,-8.028194
69.017610,5.159988,-0.804032,-8.160628
69.051089,5.114347,-0.863889,-8.270017
69.084391,5.277308,-0.753303,-7.988689
69.117728,5.094145,-0.780388,-8.109002
69.151262,5.151010,-0.845782,-8.211357
69.185455,5.220593,-0.870623,-8.238293
69.217698,4.952882,-0.895314,-8.379556
69.251275,5.192760,-0.986746,-8.294858
