time_tick,acc_X_value,acc_Y_value,acc_Z_value
0.031574,-5.187073,5.320854,-5.912393
0.066780,-5.479625,5.281947,-6.253429
0.098387,-5.632710,5.549060,-6.035100
0.132418,-5.429645,5.494889,-6.132967
0.165509,-5.517784,5.455683,-6.103786
0.199816,-5.262643,5.493842,-6.219759
0.231429,-5.102675,5.329982,-5.970754
0.265086,-5.183183,5.273567,-5.813030
0.298627,-5.696757,5.449846,-5.800909
0.331409,-5.196800,5.307985,-5.898626
0.365378,-4.702979,5.691819,-5.555345
0.398516,-5.424856,5.259201,-4.548397
0.431258,-5.018875,4.723031,-3.379536
0.464810,-4.772563,4.626661,-2.356577
0.498099,-6.009810,5.205928,-1.648167
0.531317,-5.941424,7.075418,-1.366390
0.565237,-6.474601,8.965408,-0.783530
0.598400,-6.654622,9.986272,-0.453418
0.631528,-8.273459,11.025692,0.101907
0.665131,-8.603721,11.660777,-0.749711
0.698183,-9.748340,12.141280,-0.735645
0.731308,-8.309523,11.071932,-2.330689
0.765094,-10.989179,10.989628,-4.927293
0.797930,-11.576827,9.121037,-4.628606
0.831539,-11.610048,9.137647,-9.077341
0.865190,-13.018637,11.541212,-11.986400
0.898306,-9.225488,6.841227,-9.600044
0.931558,-7.416903,3.249048,-19.661437
0.965164,-0.562957,0.442045,-16.317366
0.998111,4.423146,-0.206358,-10.691390
1.031734,3.294389,2.071507,-9.980287
1.065018,1.007696,4.351767,-7.665310
1.098217,-1.153448,5.613406,-1.410983
1.131523,0.492924,4.735750,0.137522
1.165043,-0.080508,3.067680,2.348347
1.198000,-1.813673,1.881311,5.667876
1.231767,-2.033947,0.542007,4.247615
1.265065,-4.204069,-2.396981,6.617810
1.298055,-8.530247,-7.761531,7.099061
1.331502,-14.539309,-2.928512,2.093355
1.365063,-13.246693,12.594699,4.738145
1.400292,-8.322243,22.008736,1.799307
1.431595,-6.023877,16.201991,1.564816
1.465013,0.872867,15.034328,5.154601
1.497981,-4.193444,12.392980,4.927892
1.531463,-6.613620,13.307747,10.468871
1.565122,-13.955402,14.697930,13.624990
1.599281,-24.722062,10.764715,8.176491
1.631678,-32.431068,7.301678,-0.569541
1.665112,-11.655689,6.871305,-11.504550
1.700159,-0.745521,6.473554,-20.353087
1.731517,-0.750609,4.077172,-11.783035
1.765010,2.447560,5.399417,-7.867478
1.798004,2.423318,2.580144,-6.804414
1.831936,-8.193251,6.583990,-6.023278
1.864672,-21.829165,17.611628,1.667471
1.897991,0.317393,11.345928,6.507074
1.931680,8.249067,4.850526,17.680464
1.964713,2.707041,7.136771,5.926310
1.997986,-8.503311,11.096174,7.883939
2.031942,-16.372734,16.612013,11.683822
2.064847,-21.425877,14.937359,5.973447
2.097853,-19.305137,7.430371,-8.134740
2.131680,-8.695003,5.480374,-17.567483
2.164777,-5.517635,10.907774,-19.515236
2.197985,0.575676,8.148657,-8.568705
2.231850,-2.832442,3.448671,-5.945763
2.264747,-11.872372,16.118790,-3.028474
2.297991,-9.218305,14.518209,4.742335
2.331683,-1.561375,4.813116,12.889944
2.364761,6.141945,1.509299,11.747869
2.397991,5.552801,5.465260,6.218562
2.431779,-9.042325,15.540570,3.489374
2.464729,-18.973080,12.686729,3.694235
2.497862,-22.609852,-1.525161,-0.127645
2.531295,-15.110047,4.144661,-13.471157
2.564744,-7.145900,8.562270,-16.311979
2.597987,-4.352515,13.912305,-15.327927
2.631795,-5.473939,9.348494,-5.208023
2.664848,-5.234660,9.804756,-2.345354
2.697868,-10.438044,12.309180,3.900443
2.731690,-2.582837,11.049186,15.025050
2.764757,2.612018,5.362904,7.678778
2.797964,14.752251,0.352409,7.172985
2.831779,4.146606,3.757684,6.070416
2.866718,-10.007971,29.633194,9.970710
2.897946,-32.053818,0.049981,4.668261
2.931682,-13.904673,0.331160,-18.383636
2.964443,-12.114045,9.377226,-18.294150
2.997854,-3.035956,15.935926,-19.380557
3.031768,-5.400614,12.405999,-5.433984
3.064883,-3.295437,13.420129,-6.493456
3.097986,-10.737779,15.728820,5.213560
3.131918,-3.245007,12.219095,14.494416
3.164686,1.793770,3.703663,10.443432
3.198021,11.168152,-1.876672,5.658449
3.231776,3.472315,3.094018,13.062333
3.264867,-4.798151,17.374594,8.026997
3.298112,-33.854023,9.293126,11.830322
3.331689,-23.096491,-0.299735,-3.936058
3.371059,-3.235580,13.374787,-24.809603
3.398707,1.352174,11.925645,-26.566561
3.431475,3.753494,7.183610,-19.281045
3.464773,5.200242,5.859120,-7.615030
3.498994,-5.297510,26.627616,13.866364
3.532064,-0.620420,22.806633,19.781600
3.564525,11.347724,12.550404,20.196710
3.597978,2.942130,14.303621,16.944370
3.639649,-18.122359,19.015129,15.411278
3.664513,-23.004461,1.928449,7.007929
3.697842,-20.889108,7.691947,-14.558463
3.732152,-10.370406,10.219566,-21.809711
3.764784,-4.612744,8.517228,-21.149936
3.797865,-4.371370,0.791761,-8.924705
3.831779,0.478857,0.299136,-3.794496
3.864685,-8.736903,13.437637,2.691029
3.898265,2.992560,14.233738,15.287523
3.931411,12.022165,16.443515,17.713086
3.965791,-0.164158,4.966051,11.228758
3.998061,-17.074111,6.256721,9.321110
4.031612,-33.432629,11.531336,5.530803
4.064484,-15.744832,10.236475,-12.043115
4.097857,2.649129,4.236841,-26.895476
4.131406,-4.265722,10.802126,-18.560215
4.165979,1.994591,2.322608,-1.163175
4.197985,2.148723,9.187329,0.263521
4.231734,-1.581127,33.828733,26.859712
4.265686,6.927122,14.127342,14.442490
4.297869,11.871624,14.425879,12.881265
4.331301,-7.843834,6.390652,12.281346
4.365627,-33.076179,12.993198,10.513764
4.397864,-23.301053,7.031872,-3.683162
4.431832,3.145495,3.958355,-25.375852
4.465215,-1.325986,12.918975,-22.497620
4.497807,-0.374556,11.458609,-8.030439
4.531717,-1.977980,8.023107,0.818547
4.564839,-0.227158,14.190641,18.005339
4.597858,16.438876,20.308044,15.782393
4.631461,6.853946,12.578537,17.402278
4.664867,-5.547264,2.207084,10.278974
4.699989,-30.387844,14.385775,7.668752
4.731170,-27.164086,5.492794,-3.561203
4.764730,10.110626,0.051926,-27.459481
4.797935,-3.478750,10.992172,-21.528831
4.831223,-7.416005,8.711165,-4.632946
4.864682,-0.900102,9.244043,4.518319
4.897759,4.103210,28.237175,28.635824
4.931180,10.112421,21.832607,20.154810
4.964561,8.014427,8.675699,13.996254
4.997881,-9.844860,3.303967,8.925005
5.031128,-26.211309,17.709345,5.247230
5.064520,-18.528490,3.055859,-12.310676
5.097806,1.167215,8.359504,-29.571841
5.131182,-5.873486,13.059639,-21.441290
5.164549,1.197443,11.810121,-4.510837
5.197801,-4.380648,14.738783,3.083094
5.231127,3.266706,12.627470,22.239486
5.264511,15.230958,14.026482,19.121974
5.297762,1.436872,9.813285,19.497578
5.331101,-7.055515,2.658856,9.398774
5.364602,-28.513117,13.867861,9.944522
5.397842,-23.743547,5.988561,-7.344775
5.431135,0.090235,4.050086,-22.975280
5.464512,-14.431117,9.253471,-16.284145
5.497833,-2.603638,6.986081,-9.630122
5.531101,-0.665761,14.014062,-1.025952
5.564586,8.962415,25.482997,25.643713
5.597754,9.191968,17.522441,20.383614
5.631128,5.790733,12.861811,13.958544
5.664541,-12.518830,6.148679,11.930883
5.697829,-32.238628,-0.672046,8.074135
5.731217,-26.473783,9.941230,0.646009
5.764619,5.221641,0.029929,-20.166781
5.797754,-7.164006,10.081296,-20.435390
5.831124,-3.549980,12.589311,-8.477273
5.864539,-1.862306,14.772153,-2.670528
5.897835,-2.332036,21.135121,7.239875
5.931154,2.814634,16.821813,24.948472
5.964560,7.776645,6.770595,22.057221
5.997776,3.641411,6.264652,13.506024
6.031183,-19.348085,11.947194,12.396122
6.064636,-27.072803,8.221084,-4.192247
6.097823,-17.034455,8.746780,-18.993581
6.131346,-5.992901,5.825001,-23.966964
6.165262,-0.556073,11.035868,-17.670288
6.197807,-1.964962,10.914657,-7.425133
6.231261,3.341976,18.672746,1.627666
6.265199,5.249475,24.109574,22.492682
6.297810,7.791010,14.899050,21.507582
6.331191,11.807277,14.665158,15.351421
6.364922,-16.676060,6.216467,13.454547
6.397921,-30.131356,7.981356,7.514171
6.431504,-20.376880,10.489522,-8.343941
6.465392,-5.530205,3.406771,-25.516367
6.497828,-9.793532,6.526079,-14.367219
6.531187,-2.191521,5.711422,-4.846336
6.564970,-0.419150,9.103080,3.256380
6.598068,-2.932852,17.212381,17.919893
6.631259,9.198253,13.062333,12.395374
6.664973,4.944053,16.444712,14.142306
6.697845,-5.705586,9.279209,14.702270
6.731461,-24.603246,0.497413,6.213175
6.764726,-18.625309,12.359310,-3.376543
6.797832,-3.513467,6.728545,-22.935475
6.831259,-12.197846,9.881822,-17.396741
6.865239,-3.604749,9.057888,-9.144232
6.897531,1.582624,9.725744,-1.425499
6.931435,3.439693,32.142557,9.694469
6.964792,7.974622,18.580716,15.541468
6.997675,15.798853,13.309992,18.821042
7.031257,7.504444,7.836651,14.028577
7.065294,-20.307745,12.139185,8.946703
7.097803,-31.979745,12.256655,12.558934
7.131138,-11.389175,7.774699,-15.918867
7.165209,-8.610754,6.809802,-24.318176
7.197813,-4.917118,11.643568,-17.712338
7.231193,4.655691,14.346419,-7.417502
7.264730,-0.676685,21.809262,6.852899
7.297654,7.184508,11.921754,18.478809
7.331142,19.263985,11.711356,13.729890
7.364764,2.667236,7.680574,16.447556
7.397907,-3.712492,4.115480,12.279999
7.431263,-34.780612,7.546195,13.079991
7.464730,-26.261888,6.529221,-6.510516
7.498360,-6.565135,9.335026,-24.566434
7.531198,-2.477638,9.721554,-22.620327
7.564724,-3.223608,11.672449,-6.212128
7.598157,2.426909,22.339597,2.695668
7.631268,8.070693,29.916917,16.169968
7.664726,17.478595,19.053887,18.046490
7.697688,17.419786,8.862604,21.705859
7.731189,1.496729,6.804414,23.405354
7.765291,-21.678474,15.800051,13.601796
7.798094,-35.109976,12.953243,3.213433
7.831194,-13.738569,4.557226,-24.219561
7.864828,-9.924320,7.577470,-24.035800
7.897436,-1.813972,12.373975,-12.868844
7.931142,-2.334580,15.049890,-4.675594
7.964625,3.019046,26.474232,6.482084
7.997834,11.047091,21.046682,18.989989
8.031467,17.124241,7.560411,24.141298
8.064694,7.865233,4.551989,17.292889
8.097855,-7.092028,19.035930,13.874146
8.131259,-39.827620,9.615008,6.396787
8.164208,-17.155816,10.913310,-17.133519
8.197930,-5.183931,1.978729,-20.257016
8.231627,-6.166187,10.307107,-15.553289
8.264115,0.548292,6.785260,-4.376607
8.297854,-1.413976,6.997155,2.084676
8.331960,6.907967,41.887904,14.045936
8.364478,4.517421,19.892336,17.389857
8.397860,11.521010,6.943283,16.937337
8.431661,1.755910,3.264162,13.090466
8.464523,-25.513823,29.776552,14.046385
8.498105,-32.959607,11.641473,7.502499
8.532305,-3.175723,3.753644,-27.081632
8.564510,-14.280277,9.163386,-22.259388
8.597858,-3.082495,11.821793,-16.221595
8.632251,-0.107444,14.341481,-6.460236
8.664549,-0.633738,25.932075,5.090105
8.697834,2.199602,13.340369,15.955679
8.731492,14.669648,7.584054,16.346247
8.765046,11.214093,14.030672,14.754795
8.797854,-0.825131,9.452795,18.897360
8.832071,-35.906376,7.604855,15.115284
8.865105,-29.302334,9.264993,4.148102
8.897810,2.448009,11.951234,-25.271102
8.932232,-7.705115,13.180251,-27.512305
8.964702,-4.064153,16.581187,-16.327841
8.997858,1.994890,15.995035,-2.968317
9.032166,8.076978,21.635826,13.623943
9.064428,10.899543,26.390581,21.329208
9.097808,16.147821,15.138030,19.153250
9.131453,3.120654,3.000341,14.400889
9.164698,-14.608893,15.442554,8.726279
9.197811,-36.675092,11.285024,13.567078
9.231452,-11.593737,3.880990,-20.633817
9.264654,-4.532835,3.452861,-25.172338
9.297857,-7.801635,15.476373,-23.998838
9.331928,-0.228804,18.924446,-6.466371
9.364488,-6.803367,17.607139,10.003332
9.397805,4.459958,7.794303,20.490309
9.433137,17.754088,9.785302,20.028811
9.464214,7.547092,7.449076,15.311616
9.497806,-7.013915,7.966542,10.712340
9.531531,-28.065984,11.794857,8.798407
9.564550,-23.357019,5.787291,-4.634292
9.597961,-8.965558,6.364315,-25.272748
9.631834,-9.655262,10.520797,-16.859672
9.664600,-3.583500,12.617594,-13.362517
9.699499,3.807216,25.408624,-3.562849
9.732849,9.684742,21.970577,21.712294
9.764912,9.625932,18.470878,20.936844
9.798381,12.918825,8.457969,21.718579
9.831561,-2.704946,0.050280,13.139399
9.867711,-23.199146,29.319543,17.100897
9.898167,-29.336752,1.418465,6.391101
9.931401,-7.662467,3.161507,-24.944432
9.964614,-4.675145,11.191796,-20.182344
9.998372,-2.889456,15.659835,-17.520944
10.032469,0.764975,21.522397,-2.165483
10.064494,-2.650326,11.586255,16.802359
10.097847,11.277092,13.462328,15.687968
10.132297,9.299411,10.052564,16.786646
10.164555,-1.786138,2.889905,16.361361
10.197979,-8.602374,1.290670,9.488111
10.240294,-36.605358,7.601413,8.052287
10.264204,-24.508073,5.720551,-5.648423
10.297964,0.049532,4.770318,-24.143393
10.331493,-7.060902,11.344133,-23.453838
10.364563,-2.107272,18.434365,-10.339430
10.398024,-0.883642,35.872407,2.018534
10.432097,4.911730,20.018784,22.286324
10.464854,15.211056,10.426372,23.177747
10.497619,15.542365,4.246867,21.240320
10.531566,1.840159,7.230747,16.330385
10.564137,-12.322498,18.320936,10.320724
10.597805,-39.699226,6.449611,7.559962
10.632365,-11.338147,-0.650797,-24.953261
10.664488,-13.394989,6.652527,-22.486696
10.697712,-8.971244,14.800136,-16.739359
10.736567,-3.985740,22.920361,-3.405275
10.764603,-2.102334,16.141236,12.704686
10.797981,11.280385,8.968251,18.405933
10.831912,7.453715,14.517162,24.129027
10.864590,3.583200,5.052694,14.730253
10.897980,-9.144830,5.412286,12.224332
10.931842,-26.123618,14.751053,6.599553
10.964631,-21.985841,2.185835,-7.167897
10.997868,-10.946082,1.860511,-21.397744
11.031814,-6.423423,9.276666,-21.050573
11.064505,-2.980439,9.095298,-10.265506
11.097843,-3.519901,11.655839,-1.374022
11.131673,-3.749753,30.374525,14.184356
11.165426,4.757000,19.285235,22.615239
11.197853,6.220358,5.245135,25.843487
11.232150,0.134379,-1.828637,12.827393
11.264866,-11.416560,17.140851,9.623089
11.297851,-27.960635,8.080869,0.425585
11.331987,-13.729740,5.024561,-17.941441
11.365403,-10.916303,4.343835,-20.364011
11.397743,-5.029350,6.765807,-18.130590
11.432001,-4.506647,9.503075,-7.444886
11.464520,-7.859098,11.791565,1.388986
11.497911,-7.718733,29.945948,8.742291
11.531841,1.486852,15.992192,17.686599
11.564160,10.409912,4.168903,21.879295
11.597459,3.443434,-4.910533,14.664709
11.631204,-4.584611,17.598011,11.181321
11.664093,-24.820677,16.979087,10.277029
11.697807,-24.494904,2.045021,-4.058616
11.731339,4.671703,3.278228,-24.570175
11.765060,-2.949462,11.054424,-23.823456
11.797990,-2.862969,12.707080,-13.333935
11.832489,-3.059899,15.701137,0.473021
11.864660,-0.256488,18.640124,6.749645
11.898457,5.162682,15.650557,18.998818
11.931397,6.077599,9.580740,18.353258
11.964637,0.514772,10.191134,17.444327
11.998335,-13.936996,3.854054,10.854202
12.041473,-22.193545,6.854246,4.089293
12.064860,-25.599569,8.433876,1.649065
12.098266,-5.604128,5.060027,-21.889321
12.131135,2.261255,8.468444,-26.003156
12.164527,1.015926,13.953457,-19.391930
12.198020,0.742828,13.606584,-9.517740
12.231473,-0.510731,28.678472,6.844219
12.264729,0.740733,22.024299,23.231619
12.298400,12.411835,15.781046,22.531439
12.331211,4.333959,18.497065,25.480752
12.364470,-4.434818,2.423318,15.793616
12.397971,-21.642560,20.340666,13.731686
12.431749,-26.125414,8.897171,-5.483516
12.464489,-9.780663,-0.458057,-21.258277
12.498065,-11.904845,4.790969,-17.739124
12.531997,-8.326283,6.992965,-11.248211
12.564505,-0.442345,10.603400,-10.189188
12.598798,-8.420409,25.969187,3.667599
12.631824,0.210997,10.416795,17.734934
12.664521,20.905569,2.984329,16.589267
12.698739,10.912263,17.760223,20.301011
12.730805,-4.788275,12.599936,18.070882
12.764478,-18.543754,11.500509,11.882548
12.798385,-29.505698,7.573430,-9.348345
12.831946,-12.514191,5.888749,-25.010424
12.864524,-6.528024,6.646990,-22.930687
12.898500,-5.515689,10.744364,-11.183865
12.931555,-3.749454,20.134608,-0.404635
12.964667,0.113579,20.191323,12.538732
12.998439,13.334084,23.675759,23.802656
13.031807,7.866430,14.139463,21.814051
13.064522,5.033091,3.483239,14.937509
13.098363,-4.660929,3.800033,10.616718
13.132708,-25.852764,28.729949,14.710949
13.164517,-24.806760,4.676791,-3.399588
13.198120,-11.625312,2.685792,-26.394771
13.232847,-2.216212,9.285943,-22.557327
13.264546,-3.115566,25.876408,-14.487981
13.298054,-7.654536,16.457881,6.455297
13.331480,6.328251,4.000405,14.328911
13.364675,19.730423,12.872137,16.415382
13.398072,11.034821,3.733891,19.495483
13.431586,6.535955,-1.903608,11.493925
13.464689,-5.599639,18.461001,14.881542
13.499849,-33.620430,4.576680,4.305078
13.531436,-25.311656,2.196010,-14.519257
13.564523,-10.641110,3.026828,-14.812257
13.598364,-8.035826,13.084181,-17.689143
13.631477,-5.624629,14.705412,-7.893665
13.664537,-5.354374,40.367232,5.124972
13.698053,8.089548,15.265526,19.814223
13.731241,13.287845,13.093758,22.957323
13.764526,12.122126,9.896038,21.587641
13.798390,-1.992945,2.810893,15.335858
13.830782,-16.464166,13.303557,10.044035
13.864734,-30.802654,7.546943,6.477594
13.898067,-12.074390,4.369275,-16.030052
13.932207,-5.681793,2.971161,-21.130482
13.964521,-9.049208,9.457734,-16.944221
13.998592,-2.646436,10.096859,-3.818738
14.031443,3.194727,22.758896,8.079372
14.064953,14.784125,26.277152,28.293890
14.098558,10.264758,15.600876,21.633282
14.132562,3.016203,9.203341,19.390733
14.164696,-15.983812,5.170164,14.955615
14.198580,-28.306161,8.523064,5.103722
14.232990,-26.870037,8.623324,-1.646821
14.264520,-13.031207,2.670528,-14.994223
14.298078,-7.161014,6.780322,-19.193653
14.331308,-2.507118,10.794644,-13.180102
14.364532,-4.338897,8.661483,-4.030633
14.398722,-1.165120,29.781790,8.339452
14.431292,6.396188,18.296693,19.839213
14.464477,14.508033,13.746500,24.474104
14.498776,8.649662,22.495824,20.314479
14.531263,-12.413182,12.091300,17.770848
14.564879,-25.258981,3.189490,12.158489
14.598767,-26.008992,7.025138,-6.973661
14.631225,-19.222534,-1.382850,-19.799857
14.664522,-8.859910,4.171297,-18.629499
14.698621,-2.789345,9.204238,-8.533239
14.731158,0.753303,15.431480,0.598422
14.764517,3.712043,19.470642,10.225701
14.799044,5.756166,9.993006,14.833207
14.831413,5.927956,14.765270,18.500358
14.864696,-2.886313,9.733974,15.845991
14.898781,-20.075499,4.910234,7.876756
14.934421,-31.747799,9.130764,4.231753
14.964553,-22.692754,3.004830,-16.789939
14.998062,-0.522852,2.310487,-17.801375
15.031261,-2.099341,9.012097,-17.513163
15.064678,3.261318,10.646347,-4.067744
15.100963,3.679570,26.902061,10.249644
15.132774,-6.716574,25.036312,27.944623
15.164517,6.107677,11.661076,20.526972
15.198387,-1.568557,10.648143,11.975626
15.231901,-21.877200,-2.263798,9.490356
15.270121,-23.539284,13.857386,1.074885
15.297918,-11.685468,8.087603,-14.853709
15.331964,-0.036812,4.600473,-22.662975
15.365635,-5.800310,5.013637,-8.048097
15.397697,-2.096647,5.623432,0.459105
15.431439,2.483325,17.686001,1.665227
15.464909,4.482255,15.141921,14.886480
15.497754,6.173520,14.979708,18.192243
15.531289,-3.621509,13.408756,15.553888
15.565000,-11.298791,4.288318,14.593779
15.597650,-22.483703,-4.862797,3.890866
15.635993,-18.759090,17.574666,-9.407902
15.664771,-20.040183,2.767646,-16.010000
15.697803,-5.253216,6.516950,-14.865381
15.731381,1.010389,9.699108,-11.207060
15.764876,1.184873,17.066180,-3.430415
15.797854,4.565906,26.334315,23.891694
15.831548,9.144830,15.262683,21.043988
15.864594,15.455872,14.502646,19.903859
15.897853,-10.260269,8.467397,18.603162
15.931527,-25.078512,7.558016,10.821579
15.964619,-25.367772,9.561735,2.166231
15.997801,-18.469681,1.044208,-16.279058
16.031913,-12.445505,5.481870,-17.509123
16.064446,-2.703300,10.178264,-9.779765
16.097808,3.714886,21.138862,3.714138
16.131407,13.412946,13.881029,14.663961
16.165518,13.233824,17.583495,15.070541
16.198551,6.232180,16.591512,18.134331
16.232271,-6.306552,6.656118,17.404073
16.267315,-26.752867,3.257727,15.364290
16.299496,-27.369695,5.580784,3.715485
16.331186,-14.287460,3.553721,-11.915320
16.365065,-4.550941,9.500980,-21.537660
16.397978,-5.152506,11.134483,-12.070499
16.431510,-2.078241,7.337293,0.398948
16.465246,7.773801,37.377516,19.982870
16.498220,15.799153,17.768454,15.494031
16.531187,11.902301,16.934494,22.739593
16.565244,-4.866239,11.404588,18.407429
16.598052,-21.880343,2.950809,8.081168
16.631250,-26.016175,14.051024,6.693230
16.664726,-20.558846,-2.507417,-12.682090
16.698133,-11.815508,1.511693,-16.455487
16.731474,-8.873079,10.054809,-12.910445
16.764948,-0.546346,12.872137,-0.708110
16.803181,5.984221,30.773773,8.458119
16.830798,13.783462,24.652179,23.154403
16.864616,16.316768,7.938708,25.023294
16.897876,5.276710,-1.285283,17.325062
16.940852,-20.351590,26.087704,18.388724
16.964855,-30.477480,6.480138,3.701568
16.997832,-22.240533,3.216126,-11.874168
17.031452,-14.112078,4.606908,-18.478659
17.064788,-9.029006,7.473318,-9.987320
17.098143,-4.912628,11.544355,-3.351703
17.131571,-3.530227,10.985588,-0.536470
17.164127,4.280237,38.842071,14.733994
17.197971,4.557975,17.931265,17.552070
17.231247,18.306420,11.587901,17.297528
17.264536,3.168240,-2.451750,15.156137
17.298455,-17.830107,20.857384,15.586211
17.331528,-24.361423,11.604960,10.872757
17.364520,-24.988576,-6.188933,-12.841460
17.398569,-7.668602,7.435758,-19.146366
17.431371,-5.784598,10.526334,-15.914677
17.464646,-5.028003,12.210864,0.062401
17.500726,1.598187,29.244123,5.286137
17.531286,5.118537,12.157143,15.482807
17.564649,16.231322,14.984796,13.614366
17.598228,13.780469,13.792890,18.371665
17.631427,-0.279683,-2.382166,17.811701
17.670188,-25.542704,13.637111,22.380599
17.698030,-27.852443,8.864549,-1.647868
17.731505,-7.256785,3.823826,-31.074106
17.765364,-8.455874,13.291436,-27.498986
17.797834,1.479819,13.478939,-10.747207
17.832205,5.158641,21.535715,3.342874
17.864658,12.941421,27.385407,26.891885
17.897810,19.578535,11.029433,28.834849
17.931184,11.121314,13.870255,18.512778
17.965234,-18.530885,10.389859,14.143204
17.997850,-37.956784,2.560391,8.012931
18.031736,-27.502279,7.152783,-9.975199
18.065477,-17.273734,6.238315,-23.125821
18.097806,-7.801635,10.370406,-17.819183
18.131479,0.791312,14.677130,-0.313951
18.165030,17.158509,14.711398,15.317901
18.197600,30.289079,11.913374,18.736344
18.231564,16.988814,21.927031,25.563505
18.264842,-17.733886,21.071972,25.252995
18.297809,-37.751773,-3.245606,15.218239
18.331137,-36.838502,9.384408,-3.619863
18.365525,-13.797080,5.725788,-29.410226
18.397852,-8.904204,10.413054,-28.394450
18.431385,1.281542,13.633670,-21.496658
18.465414,-1.149707,33.053583,4.799947
18.497937,14.076912,24.812596,25.115623
18.531305,20.806954,14.944243,29.718491
18.565322,12.876925,16.963524,23.747887
18.598511,-2.653469,10.522443,18.573832
18.631558,-12.735363,4.780045,16.409397
18.665261,-35.825120,5.190216,6.634869
18.699461,-20.851547,1.988755,-21.879295
18.731197,-14.514767,10.476353,-23.146621
18.765304,-8.754561,14.300329,-10.566588
18.799005,-1.380456,24.825017,-4.547948
18.831257,2.166531,16.246735,7.574028
18.868482,20.692327,12.721297,19.484559
18.900463,10.055856,14.540805,23.615602
18.931448,-1.302791,5.052993,15.531591
18.965364,-9.906363,1.818910,8.817561
18.997453,-30.159339,12.763047,13.614964
19.031250,-26.794767,0.404485,-4.549744
19.070333,-6.909464,7.452219,-22.082660
19.097734,-11.271556,8.842102,-19.115240
19.131190,-5.505813,11.374959,-8.595192
19.164935,-2.407007,42.539898,2.631621
19.198821,0.866582,19.921217,26.967006
19.231254,17.578258,8.536532,21.118361
19.265144,8.674053,14.709453,16.085719
19.298063,-2.405361,7.794901,11.899757
19.331141,-14.642862,15.429235,11.251653
19.364617,-32.779736,-0.004040,5.039974
19.397813,-19.271168,-6.629482,-15.738697
19.431439,-14.397298,9.120289,-13.135359
19.464746,-6.630679,12.279551,-8.037173
19.498577,1.699944,17.863327,-7.118814
19.530917,1.893432,31.502534,8.347682
19.564737,5.296313,21.669795,20.216912
19.598433,18.009678,12.984219,16.494543
19.632003,5.798664,-0.351062,16.443366
19.664876,-5.740303,9.048011,12.388191
19.698377,-16.629821,14.216379,11.384087
19.733215,-30.257056,3.424579,6.913055
19.764519,-15.013228,3.759180,-12.104618
19.798249,-9.448156,5.258752,-18.802936
19.831939,-10.452709,14.741626,-11.162017
19.865371,-1.254457,8.925005,-6.727648
19.898142,-4.705971,12.127513,1.206421
19.932265,2.679656,23.469102,20.621097
19.964566,8.991895,11.197782,14.303920
19.997845,13.772987,11.116825,12.990654
20.032289,4.269912,12.008547,12.500573
20.064943,-7.784127,7.440098,10.974514
20.100165,-25.655086,18.317344,18.139868
20.132025,-30.979831,-1.387040,-4.088245
20.165306,-4.771665,2.651972,-24.923033
20.197925,-22.875917,7.782331,-14.498456
20.231521,-3.745413,10.139357,-7.706911
20.264624,-0.652593,8.801848,2.828401
20.297859,0.864038,10.956857,5.754370
20.331985,10.903434,28.485133,22.119472
20.364607,15.765483,15.407687,17.239017
20.397474,6.424172,15.169455,12.877973
20.432131,-8.933085,12.440267,18.272451
20.464093,-22.655194,-4.248214,13.055749
20.497801,-26.799106,11.631746,10.623452
20.531246,-21.923290,5.301999,-9.575203
20.565045,-19.652459,3.013210,-19.557286
20.597848,-6.978599,7.974173,-22.017715
20.631987,1.084163,12.697503,-13.034799
20.664583,6.538499,10.547882,4.404890
20.697919,15.377010,32.696535,26.047899
20.731685,20.843018,23.597496,23.627275
20.765938,14.776493,17.436695,22.746476
20.798175,-1.542370,18.205860,16.424810
20.831608,-25.146450,6.950017,14.857300
20.865737,-29.321189,7.078111,6.119050
20.897443,-28.298229,0.082753,-6.774785
20.931956,-6.907219,5.119435,-15.058420
20.964689,-6.727797,7.889775,-13.627834
20.998095,-5.924813,19.166119,-2.770340
21.031446,3.485932,18.642069,9.021973
21.064532,16.107866,13.082984,18.041552
21.098029,19.727430,11.036018,21.659320
21.131433,2.675915,0.507140,20.915894
21.164499,-4.324532,6.241757,15.690213
21.197775,-25.075968,16.981482,16.883914
21.231290,-24.760670,4.272755,-7.578517
21.264486,-9.390394,1.689170,-20.118896
21.297804,-14.451618,9.401767,-20.842120
21.332094,-4.245071,15.235597,-9.448156
21.364712,-0.493223,38.151619,2.019132
21.397955,6.421179,24.823071,15.303984
21.432413,19.850735,12.126915,16.328739
21.464618,15.598930,12.214905,19.183478
21.497986,3.294240,4.100516,17.356786
21.531948,-9.583434,13.598055,10.729699
21.565068,-34.836878,17.707250,20.484473
21.597820,-24.087127,-4.309867,-2.943926
21.631704,-10.620160,0.537517,-20.677213
21.664542,-15.291564,15.015024,-13.435393
21.703006,0.771709,22.382096,-8.900463
21.730759,-2.253174,19.304988,3.841634
21.764518,-0.637778,5.800011,15.080717
21.798539,15.965556,14.505789,13.026718
21.831510,9.817026,8.864100,18.407429
21.865282,5.773075,2.177754,15.739595
21.897719,-6.872801,10.211485,13.642349
21.931279,-25.481949,9.141388,12.303942
21.964795,-23.629519,2.638355,-5.102525
21.998280,-7.786371,2.657659,-21.122252
22.031117,-15.494031,9.045168,-18.037811
22.064596,-5.010196,10.409313,-9.810891
22.097982,-0.250203,19.250817,-3.197271
22.131935,4.043652,24.241559,18.121162
22.164828,19.675204,12.742546,16.996596
22.197862,17.787459,18.680977,17.501790
22.231457,2.363161,8.350076,19.300498
22.266114,-11.553333,2.267540,15.533985
22.297960,-27.882072,15.560472,21.026779
22.331504,-21.703315,-0.462397,-4.918015
22.365152,-11.698936,3.028474,-21.858495
22.399322,-15.089695,9.731430,-18.363883
22.431260,0.777545,16.348941,-10.520198
22.465242,3.868719,34.634710,5.051647
22.498057,6.616912,16.607524,20.667337
22.531313,16.786796,7.758239,13.725101
22.565256,6.072960,14.983299,20.028661
22.599040,-5.064516,2.386805,14.353003
22.631193,-18.881348,4.757000,12.171957
22.664974,-24.865720,12.977336,10.964638
22.697819,-30.085266,0.806276,-1.910342
22.731300,-7.458204,3.596369,-18.849325
22.765255,-8.061864,9.377974,-17.568531
22.797920,0.263671,14.123900,-12.818714
22.831386,3.869018,40.851178,7.767367
22.865335,9.469855,20.643544,17.624198
22.897466,16.806699,10.258772,21.471518
22.931319,14.309457,17.761121,24.104785
22.964774,-3.113322,10.355591,18.822988
22.997868,-15.728671,5.202038,15.230509
23.031406,-34.721803,12.076485,9.390544
23.065360,-22.395563,0.131087,-9.307941
23.097858,-14.658574,3.888322,-16.389943
23.131248,-8.183075,10.757083,-12.101326
23.165326,-2.858031,13.185040,-3.624203
23.198541,-0.384582,24.535757,2.746696
23.231186,1.886100,17.983640,19.029345
23.265290,10.307855,11.461902,22.946848
23.298627,10.404824,12.136492,11.180573
23.331474,-3.351403,10.965536,16.095745
23.369753,-26.483210,2.120291,5.221491
23.397700,-22.118275,5.177047,7.371860
23.431186,-26.760349,0.384582,-11.408928
23.464157,-9.140191,8.792271,-17.480840
23.498182,-2.793385,9.801763,-17.986184
23.531175,0.779191,12.684933,-9.366601
23.564983,2.535700,17.250091,3.082046
23.598917,4.121316,30.612907,18.470728
23.631430,5.473640,14.477207,24.337330
23.664624,21.357191,4.334857,20.413243
23.698000,-3.565243,10.863629,17.999802
23.731261,-15.371473,15.699341,12.145171
23.765344,-23.270975,8.617339,6.618259
23.798876,-30.375573,-1.910641,-4.654045
23.831253,-28.368562,6.070416,-9.988816
23.865363,-10.497303,10.952966,-15.553738
23.898161,-0.219825,13.287994,-11.230554
23.931215,-4.209007,15.764136,-6.750693
23.970763,6.466221,33.277299,11.547647
23.998112,2.241202,9.555899,18.143908
24.032126,10.344218,-1.554491,12.559233
24.065265,16.918781,18.589096,15.474278
24.097801,2.954700,11.886887,16.431693
24.132383,-3.954913,16.581935,15.048843
24.166066,-27.903322,14.246308,15.177536
24.198549,-38.428758,8.930092,-6.926224
24.232367,-9.725594,10.354394,-24.046574
24.264641,-13.331540,12.521074,-29.303531
24.298223,-10.544141,25.851418,-16.385005
24.331685,-4.640128,23.294918,-5.786992
24.364688,0.347022,17.023831,2.068066
24.398068,13.078494,15.079520,13.699662
24.432201,18.703273,24.972415,13.572915
24.464687,17.978553,17.451510,12.327436
24.498768,24.661158,2.703599,13.786754
24.534257,3.815297,28.011663,18.972631
24.564107,-20.421773,19.183777,24.739271
24.597956,-40.319347,5.459424,8.100472
24.632058,-27.413091,9.046664,-16.040227
24.664049,-8.489544,10.135766,-20.061133
24.697931,-11.402643,12.688076,-10.407817
24.731130,-1.776711,14.045188,-8.637092
24.764129,-3.927229,18.850073,2.660502
24.799431,4.921308,12.674758,18.325724
24.830912,20.225441,13.414143,13.281859
24.864484,9.912947,10.574220,15.698293
24.899186,2.347299,6.357730,15.738248
24.931281,-9.288787,16.654212,20.424018
24.966933,-25.035265,4.743981,15.405143
24.998259,-21.283118,10.925581,-14.559211
25.031448,-6.745006,7.336395,-25.242820
25.065749,-15.005895,7.978064,-19.099229
25.098292,-4.188955,5.306040,-4.376158
25.131269,3.918700,10.804520,-2.199302
25.165300,2.557398,42.598109,11.778097
25.198176,11.417009,14.430219,16.739359
25.231670,19.420213,10.204153,16.658103
25.264970,7.763177,8.183823,16.545123
25.298134,-8.286927,12.505960,13.400975
25.331460,-21.783973,17.276877,15.947150
25.364630,-31.855841,-8.513038,11.785430
25.398580,-9.497539,0.407478,-19.737605
25.432644,-20.624389,10.495058,-11.976673
25.464947,-2.307943,19.510597,-19.470044
25.498570,-2.499037,25.818496,-9.237160
25.530922,-2.947068,14.216379,15.802445
25.564681,7.787718,7.487684,12.341952
25.598898,3.335990,14.344174,19.434728
25.631568,5.807044,-1.236949,17.381328
25.664654,-1.348732,0.272051,12.764094
25.698581,-15.099422,16.512650,12.104169
25.732827,-25.637428,6.200156,2.895142
25.764690,-14.131083,4.599276,-12.753170
25.798726,-4.422398,4.592392,-18.495868
25.831473,1.193552,8.332119,-15.701137
25.864656,1.633353,7.235835,-8.828335
25.898504,-1.712514,6.877889,2.799670
25.931237,-0.586451,25.954222,13.410103
25.964589,-0.576275,28.474359,19.375021
25.998134,6.406813,11.273950,19.128858
26.030972,-0.525546,14.033516,10.400334
26.064617,-16.782008,11.582514,11.382441
26.098068,-19.743441,5.102076,10.474857
26.131483,-21.398941,6.663600,-1.898819
26.164615,-16.909952,-0.087092,-8.647716
26.198563,-4.472229,4.291610,-14.666356
26.231432,-5.656204,6.406364,-7.375602
26.264658,-1.847941,9.647331,-6.586534
26.298049,-6.018789,22.184717,3.673285
26.331143,0.270255,22.123513,8.418314
26.364622,5.325792,18.351762,16.200345
26.398732,4.442749,12.249472,20.258812
26.431343,-1.205823,3.450168,11.080761
26.464647,-8.163322,2.781114,8.396615
26.498433,-31.240808,11.125803,12.444158
26.531307,-21.032167,8.270317,-3.149834
26.564623,-8.023556,3.568386,-11.930284
26.598737,-5.696009,4.476269,-14.718731
26.631507,-6.964233,10.866323,-6.903927
26.664622,-0.393262,11.625611,-3.367266
26.698504,2.953503,24.127082,9.744898
26.731415,5.461668,18.768817,19.753019
26.764419,6.380476,18.443344,14.078558
26.797815,0.366027,9.059983,14.164004
26.831108,-4.019858,-0.730108,8.499570
26.864424,-13.985331,5.257106,8.156438
26.897845,-28.615772,7.011071,10.394349
26.931111,-9.401767,4.632048,-8.718348
26.964493,-2.603638,4.112338,-19.763344
26.997867,-10.396743,8.958674,-13.668836
27.031232,-3.174974,9.684293,-6.081340
27.064627,0.102356,12.122874,1.707127
27.098034,7.095320,29.199679,17.165542
27.131167,5.919576,21.033364,15.052584
27.164610,-1.174847,14.156971,17.621953
27.198233,-5.555195,2.118944,14.446680
27.230956,-8.960919,0.500406,6.137905
27.269537,-28.902637,13.431502,7.083798
27.298088,-17.875299,6.539846,-4.915172
27.331314,-10.133371,-2.397430,-14.779486
27.367110,-5.597993,3.166894,-9.927463
27.398070,-2.747295,11.651798,-8.221383
27.431432,-1.471289,13.203147,-4.849778
27.465612,-2.408354,20.477739,4.227413
27.500239,-0.972081,20.598501,17.867817
27.531307,5.656803,9.016586,17.339128
27.565446,11.782586,7.465387,14.733396
27.598019,6.989223,8.870834,12.091150
27.632025,-11.457263,15.360549,13.037193
27.664938,-23.302699,20.227686,17.020089
27.700863,-32.690549,4.821346,-7.369915
27.731339,-13.307448,6.947174,-26.722340
27.765260,-8.887594,15.316554,-28.573872
27.798587,0.301231,13.717320,-22.198334
27.831409,-4.401897,16.864162,-9.836181
27.865908,-0.573731,32.923843,6.532064
27.898034,17.638564,26.992445,21.236429
27.931185,17.740022,15.581871,23.413135
27.965055,22.482656,10.178414,13.774334
27.999069,6.201952,13.405015,19.845199
28.031305,-21.995119,13.086276,20.496145
28.065151,-36.802588,4.705822,11.329916
28.098747,-30.055636,6.293683,-12.100578
28.131187,-24.345561,8.902857,-20.763557
28.165608,-10.294238,16.445610,-12.521823
28.199546,2.142288,17.331496,-7.894264
28.231403,2.831993,16.419872,3.966137
28.264844,10.627642,10.022935,18.564554
28.298009,11.177580,21.522397,18.894068
28.331359,-0.602014,12.476032,19.910293
28.366705,-8.286628,5.709926,15.095980
28.398371,-22.518720,11.274848,14.266210
28.431342,-31.961190,9.165032,6.559898
28.464867,-16.015387,6.245199,-19.846545
28.498540,-9.101883,8.512589,-25.251499
28.531230,-5.349137,10.431311,-23.645531
28.564923,2.826007,12.807641,-20.055597
28.597912,-1.104365,14.109684,-1.809632
28.631358,-2.574757,29.771165,9.016586
28.664910,9.290433,18.574131,20.277517
28.698107,12.958331,11.201972,18.876410
28.731424,4.066248,15.004848,13.210928
28.766314,-11.798000,7.110734,12.127962
28.798127,-18.589096,7.100109,13.516499
28.831298,-27.228282,6.771194,7.405680
28.866459,-11.056219,3.842232,-13.373889
28.897934,-6.375837,7.702272,-18.906937
28.931347,-6.819828,10.302618,-12.718902
28.965802,2.019581,13.264201,-5.014535
28.997866,0.102505,15.642177,10.101946
29.031501,9.317069,10.025629,16.731877
29.069986,6.578005,20.790643,20.950761
29.097403,-3.702765,13.931309,15.733908
29.131348,-10.353945,3.117811,13.926970
29.169798,-25.045590,8.163921,9.280556
29.197913,-20.698014,13.220655,-3.027875
29.231366,-6.992366,4.069091,-15.081764
29.265839,-7.305419,7.222517,-16.527315
29.297395,-5.565221,10.057502,-6.353989
29.331217,-2.674269,9.270381,0.039356
29.364859,5.564174,17.654875,4.460707
29.398080,14.026033,34.755772,20.525326
29.431908,7.476760,8.590702,23.717808
29.465278,4.428084,7.037857,16.346996
29.497852,-7.901896,16.484966,11.286969
29.531662,-36.993383,8.547306,12.590359
29.565714,-13.266296,5.729230,-11.217984
29.598391,-15.106007,9.706739,-19.194102
29.631537,-9.773330,11.408928,-20.586979
29.665174,-1.066505,9.066717,-12.406298
29.697755,-4.195839,8.241136,1.904506
29.731471,3.893111,24.548925,8.526356
29.765737,4.014172,24.733585,17.506579
29.798201,0.941254,12.657100,21.101750
29.831361,6.492259,0.610094,18.840945
29.865977,-6.374490,5.560433,11.645214
29.900274,-31.751240,22.557926,16.562332
29.931261,-23.295366,4.769420,-0.959511
29.965593,-7.500254,3.818888,-19.412282
29.997775,-12.794472,6.281861,-13.626936
30.031364,-7.558765,8.273759,-10.640511
30.065495,-1.852580,8.072489,-0.353008
30.097681,-0.012121,13.709838,5.228973
30.131182,5.035485,31.343463,21.602157
30.165410,4.081811,14.100855,18.938362
30.198133,1.867245,12.699748,13.567976
30.231519,-5.253066,5.181986,11.409826
30.268813,-23.548263,5.117639,8.741692
30.298654,-24.161799,11.854714,4.242078
30.331211,-18.741881,3.130231,-5.496535
30.364826,-5.902816,2.982384,-14.259177
30.397940,-3.967932,8.937575,-13.617359
30.431316,-3.325814,10.918548,-9.598996
30.464674,-2.185236,6.174717,7.266661
30.497864,7.604855,22.458713,9.529412
30.531274,9.248233,21.299279,21.765866
30.564846,7.055964,14.722172,18.549740
30.598271,-4.544806,4.007438,13.848108
30.632460,-21.136318,13.540442,11.680829
30.667311,-25.148694,8.163771,6.345460
30.697938,-18.881498,2.004916,-8.897470
30.731661,-10.162851,2.352986,-13.296674
30.764865,-9.202443,9.146476,-12.178991
30.798187,-5.009447,13.907516,-4.286672
30.835061,0.678631,27.514250,8.612251
30.864894,10.594421,15.916323,15.686172
30.898189,11.171295,16.040676,17.366513
30.934961,2.106973,7.214436,18.728862
30.964707,-6.971266,5.991704,12.926607
30.998118,-18.801439,12.994993,10.378487
31.032692,-26.014678,3.636623,3.471567
31.064679,-5.468701,4.770617,-15.987404
31.098354,-9.285046,7.074670,-18.741582
31.132565,-3.244858,10.028322,-10.438194
31.164720,-2.078989,11.438258,-5.613855
31.198657,-3.468574,12.100877,5.851787
31.232411,7.130037,25.662868,10.479047
31.265275,8.739747,18.372562,15.749920
31.297919,6.724655,11.020604,19.610708
31.332832,-0.524349,2.144084,14.796994
31.364491,-14.886181,11.422994,11.800693
31.397910,-26.126761,7.166850,14.581209
31.432504,-16.431544,6.294880,-8.473382
31.464169,-12.679247,4.869980,-14.362131
31.497930,-13.294429,6.418036,-11.776601
31.531587,-4.117276,9.010600,-3.246653
31.564546,-0.853264,12.331327,1.402454
31.599700,4.007139,33.209511,6.922632
31.631666,3.920496,24.501189,25.910527
31.665644,9.322157,14.289106,19.387441
31.698707,0.861494,7.747165,14.016157
31.731222,-15.640232,5.939927,9.789342
31.764654,-24.321169,8.856618,10.867220
31.798116,-26.562222,2.779917,2.335328
31.831389,-7.649299,3.265808,-11.047391
31.865088,-3.781028,5.477530,-14.438749
31.898028,-7.808519,7.820041,-7.636130
31.932102,-2.642096,12.402258,-2.635212
31.964997,1.500619,19.267577,5.281648
31.997889,12.228672,29.868433,18.327520
32.032684,8.070992,17.119752,17.548628
32.064685,-0.602014,12.082920,18.673195
32.097487,-5.654558,0.897558,11.706119
32.131411,-14.551879,5.430842,7.554275
32.165317,-26.352572,6.401725,7.235985
32.197719,-15.470387,7.382335,-2.861622
32.232889,-10.211485,0.685963,-15.270165
32.264619,-12.536488,6.650133,-11.615435
32.297858,-6.238166,10.761872,-7.943197
32.332687,-6.428811,16.776920,4.130145
32.366989,-1.832528,32.303573,10.819335
32.397853,3.169138,17.748402,16.658253
32.432771,2.246889,10.529776,17.388959
32.465074,-1.106909,2.406708,13.002176
32.497853,-6.940590,-1.173799,4.859206
32.532640,-19.763494,14.632985,7.980159
32.564865,-25.178024,3.855850,0.729659
32.597878,-13.393044,4.648957,-5.621487
32.633196,-4.358351,7.558465,-14.761977
32.664555,1.617341,10.973916,-15.507948
32.697851,-2.682051,11.376605,-12.229121
32.732893,-3.027127,21.342526,-2.218457
32.764481,-0.422442,17.596514,10.075759
32.798024,8.340649,6.827908,18.598673
32.832350,13.638458,20.210028,19.227173
32.864559,7.998864,5.799263,19.116587
32.897854,2.773632,12.728330,16.067462
32.931565,-29.595185,20.010105,17.640359
32.966889,-36.130691,3.484885,-4.858308
32.998240,-8.491190,9.051453,-28.033062
33.034682,-17.182901,9.534351,-24.240511
33.064520,-3.108084,10.669093,-17.316233
33.098206,-1.641882,6.761916,-8.521717
33.131757,-4.329320,16.125823,-3.812753
33.165373,-1.315960,39.384527,11.023448
33.198514,9.575353,24.939793,21.448473
33.231640,19.847593,12.226876,11.473125
33.265961,10.797636,14.731151,17.409311
33.297870,-4.483452,10.318031,17.394197
33.332991,-21.316338,6.953908,17.485629
33.364612,-25.665561,1.840309,1.711915
33.397876,-30.014484,5.401661,-14.609042
33.431623,-11.140319,6.499592,-18.472973
33.464600,-5.688826,7.524646,-18.132086
33.497854,0.311706,9.182989,-14.430967
33.531867,2.645388,19.610858,6.314483
33.564720,1.305934,27.542084,21.524492
33.597527,10.018595,17.194124,18.179523
33.632479,10.022187,12.651114,20.069364
33.664091,-3.367116,13.721660,15.452580
33.697807,-9.772732,2.566077,11.386481
33.734311,-27.817127,9.686089,13.754731
33.764942,-32.926237,5.109109,1.118880
33.798151,-5.257256,12.641537,-21.652437
33.832315,-9.342060,10.669841,-16.233566
33.864621,-2.957543,7.473169,-12.078131
33.898286,4.452925,5.981378,-12.581530
33.932346,4.367180,29.368775,2.120590
33.966358,4.701332,30.736811,18.027037
33.997854,6.383170,23.173707,12.865702
34.032239,7.339238,13.410253,16.363756
34.064618,-0.909081,10.213430,16.953648
34.099417,-11.180722,-0.150990,9.311383
34.131839,-29.090888,9.884814,11.171594
34.164168,-23.817620,3.086386,-6.563040
34.197876,1.928598,6.186239,-19.135891
34.231815,-9.071505,2.700457,-14.906682
34.264521,-3.491619,1.445850,-3.749005
34.297592,5.538734,3.444182,-7.689104
34.331641,-6.973810,33.869137,14.179717
34.364521,-1.299499,16.488109,18.596578
34.397970,15.508247,13.423571,12.849092
34.432796,-0.777844,17.227644,14.636577
34.464535,-15.914677,8.142971,16.515493
34.499079,-24.793891,-6.638460,2.275620
34.531550,-10.811404,11.046343,-7.224911
34.564534,-3.931719,8.291865,-14.702868
34.599601,-7.170740,8.172301,-14.516713
34.631199,-2.658856,4.848880,-5.217750
34.664249,0.090983,2.575056,-7.214735
34.699488,0.790863,8.923059,0.719932
34.733000,7.885585,42.373645,26.042512
34.764480,6.427763,14.501898,11.214242
34.798616,2.959638,17.438790,10.773245
34.831212,-6.506326,22.588304,13.358327
34.865300,-27.079986,-8.260141,13.535504
34.898715,-15.630655,2.639103,5.258752
34.931713,-15.307426,5.817669,-10.358734
34.965405,-9.067614,9.209775,-9.657956
34.998267,-4.696694,6.244301,-11.841097
35.031895,2.420026,4.888536,-6.203448
35.065228,3.638868,6.756229,2.502329
35.098254,-0.061354,23.124325,9.747742
35.131188,1.639488,13.875493,11.601967
35.165480,-0.818547,11.358049,18.113381
35.197863,-2.944225,3.380733,14.917157
35.231181,-15.750070,5.586171,9.867007
35.264688,-18.535374,4.447987,0.884839
35.297836,-6.854395,7.159966,-12.326838
35.330909,-0.202317,5.356469,-16.897682
35.365368,-3.694535,6.719866,-11.105153
35.398382,-0.850421,1.353072,-6.037943
35.431294,1.646072,-2.475843,-1.138184
35.465566,1.268374,7.948584,4.073431
35.498196,-3.189190,23.668726,19.224629
35.531217,8.919318,14.069579,11.790218
35.564778,9.909206,20.380023,14.721574
35.597816,-6.634570,2.078391,14.459250
35.632958,-10.683758,-4.705074,10.214777
35.664821,-21.181959,14.882739,3.433857
35.697847,-7.887380,6.953758,-10.061692
35.732434,-3.105241,4.913825,-11.430476
35.764607,-6.136109,3.376843,-3.123497
35.798872,-1.281093,3.819487,-4.111590
35.832810,-1.246975,12.001065,1.603125
35.864069,-2.989417,14.244512,10.088329
35.897859,2.888109,14.153529,8.573493
35.931381,0.106246,16.836178,19.368137
35.964592,-4.123561,8.838960,14.386374
35.997754,-20.075050,-0.539612,2.805506
36.031200,-19.061519,2.956945,-3.108533
36.064464,-12.265035,10.003332,-8.715205
36.097761,-6.202102,6.821174,-12.413331
36.131296,-3.094167,2.651374,-11.563958
36.164434,-4.797852,4.892277,-4.354610
36.197884,-0.131835,3.806617,-1.841656
36.231300,-2.836332,13.933404,2.111013
36.265104,0.833960,33.852676,22.274652
36.297802,5.930350,15.471734,9.151863
36.331281,0.165206,11.664967,14.808217
36.364478,-4.289216,10.164048,14.928081
36.397984,-9.347746,-0.191992,4.127601
36.431431,-17.626293,2.697763,6.824018
36.464557,-17.031313,11.935671,-0.277737
36.497856,-2.566975,4.170549,-13.559746
36.533795,-1.388986,2.667834,-13.539245
36.565317,-7.312153,2.611569,-2.233271
36.597982,-1.214502,10.021738,-0.680426
36.633104,1.610158,22.516774,6.571720
36.664562,1.142374,15.339150,22.421152
36.697852,-1.740048,14.006131,13.250284
36.732792,-0.748364,9.419874,14.548437
36.764536,1.195647,-0.755098,11.773608
36.798674,-16.959035,5.911345,11.255245
36.831912,-23.806098,5.192161,8.156438
36.864536,-16.051151,5.932744,-9.068812
36.898686,0.496216,5.699152,-10.159709
36.931585,-6.309246,4.510238,-11.293104
36.964547,-5.757063,4.093632,-5.408545
36.997859,-0.216384,9.688333,1.473235
37.033386,2.260955,38.279115,13.288892
37.065456,4.898861,21.869269,13.463675
37.097815,4.515177,18.488985,14.302424
37.133328,-0.141263,12.848194,13.738420
37.164550,-5.426801,-0.710056,12.673411
37.197852,-18.736494,-0.573432,9.004315
37.231435,-19.458521,9.705093,2.774231
37.264618,-7.971480,5.955041,-10.395995
37.297857,-8.129952,1.393774,-10.554317
37.333166,-7.431418,3.654580,-6.794239
37.364609,-3.512270,4.053977,-0.016610
37.398690,6.587283,21.808813,6.367158
37.433160,2.826755,15.591598,25.103951
37.464617,3.127538,15.542515,16.270079
37.498699,2.040382,14.848172,12.919125
37.532910,-5.823355,3.477253,13.281859
37.567379,-25.878653,-7.497561,9.708236
37.598743,-25.359691,10.979153,0.908931
37.633023,-4.210204,10.373099,-11.631148
37.664484,-4.106502,6.090767,-15.696947
37.697853,-1.264782,7.046387,-9.397876
37.732980,1.012634,11.761786,0.963850
37.764691,6.065029,34.706838,21.180463
37.797857,11.934923,12.761102,16.667680
37.832893,6.462181,19.658893,20.838529
37.864672,2.009705,13.388106,14.918504
37.898942,-9.511006,1.114840,6.560496
37.932419,-30.928653,-4.851275,11.336501
37.964556,-22.027891,6.952711,-1.940420
37.997856,5.939628,5.638546,-15.055278
38.032629,-7.900399,4.460856,-13.229933
38.064248,-7.785025,8.038221,-4.450531
38.097811,3.686903,25.192689,6.924578
38.133019,10.065882,10.582300,14.991230
38.164597,9.693272,11.622169,16.395330
38.198683,6.641304,14.981803,18.564105
38.232816,-1.135491,6.561245,14.881392
38.266973,-27.148672,-3.733741,8.014577
38.298380,-25.575027,10.729399,-2.513253
38.332788,-5.987514,9.117445,-10.697974
38.364587,-7.436955,4.832270,-17.643652
38.399455,-4.056970,7.709156,-12.936932
38.431544,-2.001025,12.744042,-0.080059
38.464516,6.152570,34.396928,14.853858
38.497847,17.591875,14.598867,15.584714
38.532430,6.193871,21.837096,21.765417
38.564643,-2.300760,16.770485,18.128944
38.597891,-17.761570,0.553380,13.085378
38.632325,-31.668338,-9.417928,7.095171
38.664785,-17.451061,12.328334,-4.695646
38.697859,-3.710696,5.843707,-12.974792
38.732627,-8.348131,3.838491,-4.039611
38.765392,1.913933,1.374470,0.827226
38.799719,5.777415,9.809694,2.033648
38.831352,6.784362,19.473336,17.653827
38.864756,7.702422,15.150151,13.657164
38.899528,4.335755,11.990291,19.986312
38.931859,-3.730150,3.834301,18.656734
38.965307,-25.651345,5.162382,17.733886
38.997982,-18.976821,14.622809,4.423595
39.032729,13.488965,4.978172,-29.666565
39.064944,-15.767279,8.058722,-15.825191
39.097585,-5.488305,10.860636,-9.795927
39.131218,5.034737,16.660497,-0.677733
39.165368,10.175720,22.314457,26.076331
39.197814,12.975690,14.191239,19.811978
39.232416,18.754601,12.575095,17.678818
39.265090,-7.559662,9.144531,20.767897
39.297811,-17.361275,-1.487002,9.993605
39.331235,-28.482889,2.483624,9.772882
39.364688,-8.765934,6.910062,-10.931567
39.398139,-9.335475,7.775896,-12.726684
39.433029,-4.931932,7.883340,-11.719287
39.466253,2.917439,5.750030,-4.468338
39.497665,1.041515,17.567783,3.915108
39.531185,-1.589058,15.478617,20.694722
39.569080,5.511050,10.732991,23.801160
39.598614,-1.221835,4.477018,20.385559
39.632415,-6.345759,1.079824,14.829167
39.666164,-21.768559,0.138719,5.682092
39.697930,-20.450654,9.503674,-11.325577
39.732342,3.533369,10.224504,-15.393022
39.766384,-1.242485,9.111460,-19.008545
39.797912,-1.659690,9.944223,-4.568749
39.832272,1.870986,14.081102,4.336952
39.866483,5.741650,19.441163,28.446226
39.899202,6.202102,22.498817,22.632299
39.931250,-1.634550,16.464316,18.416109
39.966254,-7.106394,5.574798,9.147224
39.998061,-19.329230,-10.527232,2.584932
40.031137,-20.644442,0.981358,7.575076
40.064590,-2.230727,10.242162,-8.257896
40.097933,1.519923,5.893837,-11.440054
40.131252,-7.623111,2.773333,-3.772050
40.166310,-1.669267,1.425798,0.591389
40.197904,4.220380,7.544399,3.091773
40.232187,2.643892,18.901850,19.537682
40.266107,5.746738,16.616054,13.991466
40.297888,4.038115,15.214647,17.577360
40.331495,-7.295692,4.051433,17.498648
40.365950,-26.887994,-9.040828,9.779466
40.398481,-17.523638,8.244129,-5.402260
40.432169,0.719334,11.434966,-13.891654
40.466020,-8.072788,6.085081,-14.795946
40.498689,-5.464661,9.309886,-6.095257
40.531583,0.467634,24.744209,4.964255
40.565374,5.795372,20.934599,18.260630
40.598648,8.665973,14.266360,20.414440
40.631450,6.208836,11.287567,18.957517
40.665689,-6.200605,2.088118,13.428060
40.697817,-13.376733,-4.156782,3.897151
40.732231,-20.071459,-1.859613,4.611397
40.766125,-4.303582,11.049934,-8.398261
40.797738,3.161507,4.899909,-12.671914
40.832147,-4.899909,4.519816,-9.084524
40.864798,0.038907,7.334150,0.806127
40.898054,5.005706,14.920449,3.149685
40.931510,-1.178588,14.241070,25.262273
40.965037,7.055515,15.794963,16.923270
40.997908,-3.784919,16.417328,19.633454
41.033338,-8.480565,-0.011223,10.825919
41.065248,-21.067482,-5.791481,4.380648
41.099418,-25.954222,8.388834,-0.971332
41.132771,-15.539373,10.598312,-6.260911
41.164877,1.100474,4.373315,-17.138607
41.197807,1.438518,7.251248,-12.657549
41.231482,-2.887660,6.828357,-0.511779
41.267418,4.402795,33.169107,13.106777
41.298370,6.713132,24.643500,17.712188
41.331121,10.531871,13.976202,15.955380
41.364622,0.616529,7.819891,16.943173
41.397911,-12.206375,-2.644640,13.302061
41.431190,-18.870873,-4.954528,9.498885
41.464617,-13.058741,9.975498,-3.885928
41.497820,10.374746,11.033923,-10.877695
41.533612,-10.067529,3.094616,-9.128369
41.564486,-11.247463,2.120590,-4.261233
41.597919,-2.252725,4.766427,0.480653
41.635508,1.702787,22.704426,20.910806
41.664506,7.731004,9.497239,13.572915
41.697929,8.003503,15.458416,15.405592
41.733484,-3.480994,5.715912,12.437125
41.764874,-14.006729,0.653042,6.858735
41.798617,-21.582404,4.400849,3.206998
41.833656,-8.519323,4.415514,-14.110282
41.864529,-0.243768,7.634484,-15.601774
41.898806,-6.382721,8.808433,-12.013036
41.933558,-2.077044,19.561925,2.382914
41.965256,2.648381,28.685356,19.427844
41.997983,11.563359,14.123601,18.437208
42.032035,4.198831,13.366856,18.985051
42.064823,0.680875,5.588715,13.112912
42.099263,-4.002500,-2.723951,8.636643
42.132029,-22.513781,-0.550087,7.307813
42.164781,-20.627083,4.606608,-2.350591
42.199264,3.335841,10.331050,-12.122276
42.232546,-9.846955,5.754520,-13.883424
42.264726,-7.904140,8.238144,-3.311748
42.299371,-0.650947,17.700666,2.013595
42.331972,2.178801,10.798085,26.660088
42.366298,5.466906,9.505170,19.268325
42.397998,1.604023,9.092605,18.744575
42.431372,3.336289,6.064280,10.315337
42.464554,-17.836092,6.027019,7.919703
42.500657,-26.215050,9.302554,0.920603
42.533003,-2.281007,7.241821,-15.316105
42.564861,-3.453610,5.694662,-19.705133
42.599364,-3.607891,9.161291,-11.903498
42.632750,-0.172987,18.093628,3.874555
42.665497,6.552715,24.632426,15.549997
42.698837,7.974173,22.692904,21.290450
42.732566,6.628584,15.465748,17.035353
42.764717,-7.281177,8.819955,18.596279
42.798238,-11.264822,-0.718735,11.681278
42.832253,-26.997234,-4.216190,8.632153
42.865183,-11.815957,7.080955,-5.722047
42.899569,5.102974,8.837164,-14.683565
42.931974,-6.850953,4.438559,-9.828249
42.964794,-3.252190,1.748727,-2.117597
42.999573,7.846678,4.215143,1.598785
43.034284,3.248449,23.936586,26.798059
43.064826,-3.050621,13.583390,16.179246
43.099118,3.459296,12.282394,14.556518
43.132064,-8.725980,6.507373,11.579970
43.165080,-27.486566,-9.283100,3.590084
43.199137,-18.618875,10.091920,-1.969152
43.232068,4.280088,6.749944,-11.082706
43.265268,-2.494548,4.366880,-14.615178
43.298170,-6.180254,7.067636,-4.245071
43.331488,-4.056371,14.158617,5.175701
43.365105,2.669481,29.276445,16.093201
43.397882,9.581039,16.862216,18.742330
43.433252,4.332762,18.102607,20.902426
43.464989,-3.837444,9.220998,16.116545
43.498092,-10.684207,-2.600794,8.758751
43.533587,-25.688756,-5.035186,12.098034
43.564980,-13.465621,10.630485,-7.058957
43.598101,18.359244,11.705520,-12.970452
43.632537,-3.605946,6.522786,-9.448007
43.665473,-5.369638,0.734148,2.341912
43.699103,2.734276,11.415213,0.375753
43.731520,-0.248258,15.908093,25.820292
43.767133,5.407946,6.399930,15.376411
43.799079,6.926822,8.475328,13.104382
43.831710,-20.626484,2.955897,14.851464
43.865145,-19.213556,0.263222,3.075462
43.898938,-7.008976,8.005748,-9.161889
43.931585,2.957394,-0.030078,-16.989862
43.966444,-4.915322,5.337614,-9.391741
43.997945,-7.193486,5.571506,-3.259523
44.031555,-3.621359,18.867731,4.292059
44.065584,4.652250,24.446270,19.502816
44.098241,11.785280,17.203851,13.358027
44.132401,1.525610,15.140724,14.057309
44.165386,-4.831821,11.314054,15.076826
44.198963,-15.728072,-2.880178,11.917115
44.232652,-21.118361,0.263970,4.758496
44.264829,-10.238121,9.121635,-8.536083
44.297871,-6.279766,10.156865,-11.098568
44.331502,-9.030653,7.009874,-8.281989
44.364778,-0.348818,9.475691,-0.033221
44.398210,2.331138,13.787503,8.614346
44.431373,14.504741,12.710373,11.722879
44.465065,6.293683,10.740623,18.803235
44.497997,-2.051904,5.258154,16.850993
44.532385,-12.777862,-1.124267,10.814546
44.567533,-30.914587,8.887295,7.202315
44.598166,-8.986508,7.044142,-17.081144
44.632307,-7.211593,3.858992,-20.676765
44.664765,-10.714884,6.101542,-11.969041
44.697854,-4.431975,13.419231,0.168348
44.732165,11.149597,33.744933,10.025778
44.768033,12.536338,23.882865,31.311889
44.799019,16.066864,9.449354,21.774695
44.831674,1.413677,17.436845,18.426584
44.866060,-11.871325,2.147975,12.555193
44.898793,-26.422006,-6.776581,8.957776
44.931667,-17.750796,8.178735,-1.290820
44.965994,-2.542434,6.548076,-13.531463
44.998028,-6.713132,9.449653,-16.279656
45.031581,-5.139188,11.005491,-9.183288
45.065898,2.197656,14.115520,1.259096
45.097989,5.024262,9.434389,4.296249
45.132407,12.643782,18.496916,14.788464
45.166238,3.046581,13.292783,19.437571
45.197968,-2.724848,6.497796,19.523616
45.232679,-9.154557,-0.118966,17.525583
45.268629,-21.084242,5.226878,14.388768
45.298151,-23.079432,6.459039,-2.329492
45.331567,-5.617147,10.076507,-14.180016
45.369903,5.486210,6.862177,-26.537830
45.399023,-2.414639,13.403818,-12.800757
45.432255,-3.988583,36.480706,3.547585
45.465510,8.996983,19.987808,20.834638
45.498183,19.146216,13.392445,24.744958
45.531657,17.295133,8.714158,16.177450
45.566015,6.227541,4.634592,12.717555
45.598205,-8.881907,9.043073,11.626658
45.632573,-28.604549,1.173650,16.354627
45.665057,-23.037681,3.748406,0.091581
45.697959,-6.170078,5.253365,-12.463462
45.731659,-10.042688,5.151309,-11.084203
45.766285,-6.906920,9.634462,-6.550620
45.800888,-1.528752,23.672766,0.969986
45.831435,3.597416,17.408563,21.163553
45.865219,16.402812,11.860251,11.944500
45.898070,6.653724,11.263625,15.968548
45.932731,7.633736,8.105709,16.085569
45.965348,-8.314312,6.144190,12.118535
45.999951,-27.306845,2.406408,11.394712
46.031413,-27.263000,0.924644,-1.775813
46.065164,-5.485462,4.285475,-7.775896
46.099927,-7.479603,5.783850,-10.191433
46.131372,-5.040274,7.753001,-2.976548
46.166195,-2.856534,28.521347,2.048313
46.199274,5.145173,34.113055,14.517012
46.231627,27.653717,5.346144,12.656202
46.264762,14.177472,17.592923,20.131615
46.298498,6.111268,-0.592137,12.366792
46.331444,-6.852599,7.377397,12.603228
46.365967,-28.454756,1.293214,18.298340
46.399296,-29.356504,5.650518,-0.705866
46.431963,-6.187736,9.825556,-12.917628
46.465858,-11.167703,23.051448,-14.398794
46.499178,-8.502862,27.206734,0.953525
46.531411,18.281131,18.477312,23.933145
46.566640,31.242155,-1.698896,20.866512
46.598719,11.151991,6.361322,20.994157
46.631414,5.705736,4.078369,13.314182
46.665038,-5.285539,12.060174,12.649468
46.699047,-36.101660,-4.677240,13.664496
46.732101,-22.171249,2.107272,-4.781092
46.764805,-15.110945,11.352513,-16.470601
46.798425,-3.901641,12.903562,-13.924725
46.832811,-1.396318,28.046829,-9.391442
46.865375,-7.991831,37.484361,6.653874
46.898624,19.284038,12.686280,18.271404
46.932790,24.734782,11.119518,13.418782
46.964837,7.600665,13.496746,22.503606
46.998594,1.120526,-0.090235,14.890521
47.033448,-18.081956,-2.069263,18.429427
47.064704,-28.795643,-3.979305,17.044182
47.098568,-10.860786,6.204346,-6.196565
47.133018,-13.964231,9.371240,-9.092754
47.164732,-4.268715,7.659325,-9.744300
47.198719,4.268415,12.112699,-3.029372
47.231908,6.062335,25.222468,9.283100
47.265171,10.101198,14.854008,19.429790
47.302011,8.758003,16.513398,19.500272
47.331708,4.046495,11.347574,19.138734
47.364976,-7.089035,3.255632,18.467137
47.401464,-21.371108,3.303069,16.234763
47.432247,-26.917474,0.433815,1.600731
47.464745,-14.267108,6.337678,-15.728372
47.500710,-8.791074,9.557695,-17.828910
47.532402,-7.599018,10.061094,-12.071397
47.564982,-2.507717,15.904052,-1.943114
47.600286,10.652932,32.598220,19.246477
47.632465,24.794340,23.580436,16.026311
47.664721,16.185231,12.695558,19.677898
47.699843,-1.888793,11.140319,20.619302
47.732152,-14.654683,0.626405,14.349861
47.765503,-29.889981,-7.752103,16.110709
47.800060,-15.859159,2.646286,-0.505045
47.832170,-4.308669,9.941230,-10.873057
47.866161,-5.973896,8.539674,-14.623857
47.900380,0.062551,15.591748,-11.777798
47.932357,-2.723352,28.226401,2.219355
47.964851,4.450531,18.057863,21.001939
47.999842,20.185636,6.107827,16.291628
48.032446,9.899180,7.797445,19.471241
48.065089,0.960708,8.752167,15.856316
48.100944,-20.611371,4.712107,13.334833
48.131665,-33.461659,1.950895,4.426887
48.165151,-19.871536,3.322971,-11.610497
48.199938,-12.023661,7.935416,-14.898452
48.231937,-8.620481,9.582386,-9.373335
48.265928,-1.434627,16.212915,-2.484073
48.299775,0.991833,32.740530,16.359117
48.331755,19.559081,24.449263,16.800863
48.365141,18.720033,7.088437,18.250454
48.400828,-0.908782,7.164306,19.725933
48.431590,-11.594036,0.455363,10.793446
48.465921,-22.237092,-4.936122,14.404480
48.499508,-20.609874,5.111204,0.416456
48.531600,1.308478,7.756443,-14.975069
48.565033,-8.390630,7.776345,-18.365679
48.600591,-3.810508,17.459890,-5.515689
48.631572,8.028344,24.553864,3.165098
48.666208,21.018100,15.019363,15.290516
48.699398,17.728050,10.954163,19.589459
48.731629,11.487939,10.889218,19.931992
48.767113,-17.021436,11.503353,21.388317
48.799208,-32.117716,-3.147739,14.846675
48.831554,-26.421408,2.292680,-6.487471
48.866948,-12.617444,11.692950,-22.220032
48.898788,-12.320104,12.006452,-17.642305
48.931843,-4.543310,12.849989,-8.208514
48.970667,0.828872,41.087314,7.929430
48.998185,15.171849,29.553883,18.626207
49.031596,22.580821,20.131017,19.975687
49.065247,12.424405,8.036724,18.319439
49.102721,-3.020393,4.553485,19.221188
49.131731,-12.486806,-0.863290,15.300842
49.165032,-30.154401,-1.363247,20.714026
49.198762,-7.456708,7.199771,-5.415429
49.232191,-7.621764,5.027105,-15.254153
49.264933,-10.649640,7.038755,-11.180872
49.298782,-0.138869,8.165417,-6.461882
49.332589,4.793064,22.651004,2.264846
49.366959,0.075869,18.327071,22.453924
49.398994,9.853988,5.915984,16.458928
49.431941,10.016051,6.440932,15.897767
49.465770,-3.106588,2.132412,13.168879
49.500527,-6.459188,8.239041,7.254091
49.531612,-21.711695,6.983537,11.311061
49.565642,-36.394960,-2.845610,6.414744
49.600167,-1.752469,10.207445,-6.529670
49.631726,-1.202830,7.233740,-26.165817
49.665589,-2.096647,19.001362,-13.485673
49.699088,-9.568170,39.948232,6.409956
49.732066,5.497134,16.848599,18.944049
49.769581,24.724307,11.844688,13.763410
49.799222,13.335431,13.996404,18.093179
49.832973,1.836568,6.112914,15.727623
49.866933,-14.204707,10.904033,16.939731
49.897498,-25.564552,0.889178,18.118918
49.931924,-22.388829,-7.398497,5.627173
49.966735,-13.302360,5.121679,-7.623560
49.997474,-7.991083,10.903434,-10.873505
50.033244,-5.595150,10.494310,-9.339965
50.066691,-2.205438,15.362195,-0.171192
50.097437,-4.397707,15.791970,6.035699
50.132770,5.634805,15.990396,18.577274
50.167121,10.802575,11.140169,16.804753
50.200159,3.582153,5.332676,18.847978
50.231762,1.941767,1.643528,14.456556
50.267989,-9.884665,10.398688,15.633498
50.299043,-24.476049,5.113599,12.782201
50.331958,-24.097004,4.346080,-3.230941
50.366954,3.041493,9.099788,-16.522826
50.397535,-6.314334,5.137093,-18.784529
50.432057,-1.234854,4.169801,-16.468955
50.466715,0.719184,4.935374,-6.494953
50.497594,1.634400,53.667049,9.611716
50.531596,3.628991,29.822493,21.732645
50.565342,13.619753,10.979752,19.658145
50.599230,-1.483111,13.279614,20.889407
50.631043,-5.319059,7.568641,16.431993
50.666779,-20.202546,-1.671961,12.433832
50.697480,-20.686342,11.157977,7.054318
50.731654,-7.735792,7.592285,-9.448605
50.765562,-7.061800,4.665269,-20.588326
50.798603,-6.328999,3.978707,-10.922139
50.832253,0.188101,0.528689,-2.498439
50.865166,3.100602,8.137284,0.451622
50.901532,-6.392447,25.660174,16.497686
50.932481,-7.960705,14.446829,19.496680
50.965247,0.619073,13.785258,15.508995
50.998890,-1.928598,9.457883,11.540165
51.031775,-7.437404,4.205715,9.293874
51.066938,-24.755882,2.657210,5.723843
51.098823,-15.629009,10.801228,-7.033368
51.131978,-3.582751,5.634057,-15.094933
51.166922,-5.368890,5.827994,-15.037769
51.197407,-2.652721,5.046708,-8.140427
51.232054,0.586301,4.770019,-10.874852
51.266431,-2.120141,10.954911,2.964726
51.304355,8.590852,29.383141,23.020772
51.331871,6.267047,19.034882,16.696561
51.365587,0.835307,15.445846,18.860548
51.398390,-3.014707,12.010343,14.316041
51.432802,-6.026870,6.279617,5.901619
51.464441,-27.654914,5.875730,11.945398
51.498436,-19.309627,5.744344,-0.348668
51.532766,-5.061822,11.562312,-16.952900
51.564438,-3.719675,6.399780,-14.096665
51.597994,-9.267238,3.503141,-5.599639
51.632843,1.990999,4.903650,-7.996470
51.664541,2.885415,25.173385,8.227070
51.700293,-0.479905,15.923506,17.645148
51.731754,8.675849,14.347018,11.411921
51.765478,-1.118132,9.191070,15.555235
51.800082,-5.868697,0.335350,11.220677
51.832119,-11.646262,4.613642,5.216852
51.866270,-27.961682,3.460194,1.525909
51.899962,-18.658680,4.471780,-4.610350
51.932110,-5.351531,3.790157,-13.457390
51.965562,-5.656503,6.343365,-16.096344
52.000041,-2.582388,10.758879,-8.180381
52.035873,-4.365234,35.018245,2.565030
52.065825,-7.459402,21.965789,14.977613
52.098578,15.610603,11.608252,17.739273
52.132408,19.750175,13.196862,12.368588
52.165370,-4.296099,12.746885,19.147114
52.197762,-4.006540,1.995189,9.449204
52.233859,-31.671181,1.429389,13.030908
52.264139,-19.815869,4.250907,0.209051
52.298830,-11.732606,4.819850,-11.689957
52.331012,-8.984413,8.373271,-14.464487
52.364092,-2.295822,7.049829,-11.249558
52.397973,1.631258,6.203299,-4.512034
52.431227,2.972358,19.485607,-1.347235
52.464604,4.167107,10.932465,21.090527
52.498918,13.241904,11.823589,15.378207
52.531606,2.002372,16.086018,20.701156
52.564581,-9.229827,8.125013,17.521393
52.598064,-20.319417,-4.641775,9.083626
52.631401,-25.248955,5.519131,10.003930
52.664523,-15.005596,4.801893,-8.563318
52.698994,-4.699686,5.782203,-16.213664
52.731263,-6.072361,6.805163,-18.515322
52.764769,-0.156377,9.876135,-14.904587
52.798533,-1.311321,18.939260,1.396019
52.831070,1.759801,26.995288,14.754645
52.864512,15.651305,15.326730,14.401787
52.898057,10.453607,13.773586,18.295796
52.931181,-2.727093,12.510450,19.868842
52.964520,-15.139826,-0.559665,12.509402
52.999221,-19.883058,-2.945572,13.376583
53.031059,-19.438469,4.751014,-1.507054
53.064810,-4.324980,7.529584,-11.345030
53.098398,-5.907455,6.129824,-12.603528
53.131243,-5.761403,6.601199,-6.506924
53.164526,1.569006,12.244085,-0.594531
53.199773,2.405061,20.603589,6.926972
53.231266,0.241823,19.349731,22.098073
53.264083,8.961966,10.249045,18.340988
53.297604,3.189939,11.295648,17.635571
53.331244,-5.632860,5.511050,15.539373
53.364503,-20.851398,1.056479,8.858563
53.397529,-24.827561,7.056712,-0.025589
53.431292,-12.474236,8.944758,-9.992108
53.464645,-7.418399,5.874683,-13.224995
53.498166,-2.206036,5.659796,-13.257767
53.531279,-2.697015,4.572340,-12.722045
53.564642,-7.941701,23.758661,1.055581
53.598490,3.552524,32.997766,19.129008
53.633456,20.451253,16.497387,15.287075
53.664642,5.989010,17.697523,21.116266
53.698365,-2.349993,10.150880,19.388339
53.731657,-2.461477,1.974389,9.436784
53.764584,-16.246585,0.531981,11.998970
53.798197,-27.420274,5.272071,7.506539
53.831831,0.175681,11.545402,-14.497558
53.864788,-5.459723,2.480481,-16.886458
53.898385,-13.042131,4.390225,-9.177602
53.931672,-1.528603,5.080228,-0.983304
53.964621,3.747658,23.152457,5.556991
53.998085,2.798922,20.005167,25.131036
54.031816,8.235300,12.761251,14.547240
54.064582,-0.738787,14.411963,20.380771
54.098427,0.454166,4.522958,13.920685
54.131656,-7.500404,0.671448,9.797124
54.164584,-19.870937,8.498373,13.645791
54.198093,-27.233819,3.088331,5.104022
54.231387,-5.031744,7.277286,-10.755437
54.264578,-9.179098,7.645857,-16.014938
54.298132,-5.704090,8.138781,-15.711462
54.331406,-3.883384,15.012929,-5.232715
54.364573,-1.349330,41.099435,6.063981
54.398088,9.125975,24.615367,19.535737
54.431515,17.804368,10.696179,15.654897
54.465119,9.028857,7.847276,16.780212
54.501072,-2.643293,5.449697,15.521715
54.531324,-11.894968,3.475158,14.303172
54.565377,-25.431669,1.478772,16.667531
54.598079,-21.884533,3.398391,-0.937214
54.631391,-1.719697,8.147460,-14.603805
54.665069,-14.045188,6.909464,-12.783997
54.697854,-3.176321,7.373955,-13.988623
54.731250,-2.654516,14.735341,-0.549788
54.764708,-3.357240,23.613956,13.620651
54.798105,9.157999,18.185958,18.251950
54.831624,11.664967,14.955017,19.747033
54.864665,1.281542,10.086384,20.412495
54.898100,0.441896,7.628049,13.963932
54.931403,-10.918997,5.317412,8.240239
54.964967,-25.671248,1.471589,8.588907
54.998119,-20.286945,4.365983,-5.821560
55.031332,-11.532683,8.909741,-14.524943
55.064699,-7.797595,8.277500,-18.774503
55.098387,-4.993136,9.787247,-17.573768
55.131417,-5.384752,24.431306,1.421309
55.165253,1.704583,26.393873,15.166462
55.198124,16.541831,22.835813,17.618811
55.231642,13.474300,11.651050,17.005424
55.265191,-0.981209,14.672042,18.072229
55.297957,-6.719567,6.937447,12.276558
55.331406,-18.164110,-2.182243,10.326710
55.365168,-25.432118,-1.164222,10.319827
55.397934,-20.393042,5.039675,-0.577322
55.431878,0.637928,9.339815,-9.589270
55.464616,-6.529820,8.671360,-12.215503
55.497949,-3.855999,9.009254,-9.025265
55.531340,-0.079760,16.269032,1.240690
55.564619,1.949997,13.505725,12.718902
55.597946,13.219608,13.854692,14.024387
55.631850,9.543479,17.746756,18.377800
55.664124,2.625785,9.612464,17.072315
55.697880,-2.896639,4.885693,13.371495
55.732033,-25.787520,6.497197,15.089396
55.764457,-30.213809,4.096925,-2.325751
55.797872,-12.585271,6.172472,-10.475455
55.831494,-10.566887,6.103936,-16.348043
55.864602,-7.520905,7.392362,-9.444565
55.898100,-2.360617,8.873378,-5.372182
55.931547,-6.074755,38.511660,6.489416
55.964670,7.557717,26.668169,20.576204
55.998106,17.606989,6.267795,14.527487
56.031839,8.663279,14.527786,16.261250
56.064621,-3.873957,8.801400,18.109340
56.098107,-6.758624,2.679806,10.599210
56.131753,-14.831711,2.408054,12.047454
56.164649,-21.025882,2.690730,3.176620
56.197460,-19.355567,8.513038,-8.575888
56.231868,2.654666,8.832974,-16.492598
56.264901,-7.611888,8.768927,-9.566075
56.298118,-5.138140,16.210371,-9.075246
56.331789,-1.413378,17.036849,12.465557
56.364592,17.843874,20.088219,18.632941
56.397945,16.582534,11.872821,18.381092
56.432089,1.790927,7.230747,19.556837
56.464607,-4.278292,4.231005,14.030972
56.498129,-10.554167,4.356106,10.197568
56.532867,-26.691663,1.323143,4.327225
56.564101,-21.890070,5.049103,-1.526208
56.597895,-0.663068,9.901874,-15.491038
56.631539,-9.009553,8.088052,-12.068704
56.664622,-6.585038,8.342894,-7.114924
56.700030,-6.047371,36.246664,7.145750
56.731515,1.612103,23.174754,16.363157
56.764433,15.880558,14.471371,13.551965
56.797758,20.295025,12.151007,16.558441
56.831367,1.139232,7.749859,21.710199
56.864441,-5.384752,-1.472337,13.026269
56.897776,-7.992131,7.737737,11.935073
56.931528,-29.299041,3.976761,6.041235
56.964619,-18.384684,2.831993,-9.835582
56.997796,1.575291,5.863011,-19.848940
57.031350,-7.011371,10.217770,-10.707551
57.064584,-0.191842,10.654129,-8.414423
57.097909,3.630338,20.389450,3.386420
57.131838,7.253942,20.683050,20.763109
57.165171,12.488602,12.550255,15.869036
57.198145,13.629929,10.627492,16.373183
57.231589,-3.189340,12.523768,21.764669
57.264882,-4.842296,0.551285,14.898003
57.298473,-13.726748,5.954293,15.096130
57.331173,-30.369138,2.317221,2.432596
57.364751,-5.410640,6.246845,-15.491636
57.397896,4.964405,5.752275,-21.564596
57.431461,-4.289814,11.291309,-12.216252
57.464808,-2.080486,12.808389,-4.179228
57.497680,-1.867245,31.742711,4.539718
57.531471,5.107613,26.544414,20.128772
57.564940,20.010554,10.655775,12.841909
57.598450,9.885862,19.517780,16.549462
57.631922,2.749540,10.918997,18.060707
57.664975,-2.971310,-3.217473,11.361790
57.699068,-19.959077,4.936721,18.441847
57.730782,-32.560360,-2.107122,8.944758
57.764715,-15.722984,4.701482,-6.008314
57.798941,1.315212,7.564601,-18.011175
57.831460,-9.872394,11.638630,-10.660713
57.864474,-0.940506,11.954825,-11.787525
57.899065,5.790883,22.239785,2.286694
57.931190,12.810484,26.795515,24.042983
57.965141,17.817088,9.740259,14.039501
57.999812,1.594745,16.964123,22.232153
58.031354,-3.575868,7.132581,18.489733
58.064520,-7.844433,6.177710,10.637967
58.098633,-39.294143,-2.721856,7.200819
58.131356,-25.625457,3.594573,0.184210
58.164809,5.959830,8.339751,-11.534778
58.198427,2.883470,9.633414,-19.330128
58.231401,-2.741459,10.392553,-4.743382
58.264996,-3.448222,27.628428,2.933900
58.297927,7.713495,19.439367,19.559680
58.331658,14.738932,11.299090,14.444884
58.365120,7.956216,14.580909,10.387316
58.397778,-0.653940,6.389305,16.671272
58.431949,-5.021718,-3.726109,12.310527
58.464197,-18.522954,0.511929,12.072145
58.497808,-26.311719,4.081062,-2.138398
58.531204,4.684722,8.658491,-16.764799
58.565132,1.674804,5.708579,-18.082704
58.598054,-0.925691,7.169693,-8.672707
58.631407,5.876030,12.790581,-0.899953
58.664790,8.874725,23.774374,16.541382
58.697809,10.687350,14.960254,11.437061
58.731596,7.746417,22.169453,13.702356
58.764803,-5.617896,18.396056,22.474126
58.797858,-9.124030,-0.176878,15.210008
58.832231,-20.481331,-2.769891,12.809586
58.867596,-25.954522,4.801144,-5.052544
58.897868,0.644512,10.223008,-13.312536
58.932072,1.538479,5.819614,-14.002539
58.969274,-3.479498,8.170056,-17.131125
58.997804,-2.795480,7.371561,-11.005042
59.031687,-5.196052,23.402511,-5.992901
59.064532,-9.062227,31.526626,9.335326
59.097815,-6.765058,20.105877,15.530544
59.131416,-12.532746,9.061629,15.418760
59.164603,-6.553613,2.214267,12.998585
59.197996,-0.720082,-1.820257,3.743618
59.231928,-2.730086,-0.692248,2.519089
59.264144,-6.538649,3.633780,4.255247
59.297924,-9.470453,6.335134,2.644490
59.331432,-6.444673,5.117639,1.045705
59.364478,-3.100003,6.886868,2.285946
59.397860,-1.100474,9.983130,3.888322
59.431810,-1.118431,12.750178,5.561779
59.464672,-1.267625,14.359438,6.676769
59.497618,-2.222946,12.796417,6.820726
59.531933,-1.223032,13.715824,6.870407
59.564664,-3.108683,14.190641,5.384901
59.598016,-4.469236,14.551579,5.945314
59.631922,-5.977188,14.211740,5.557140
59.664735,-7.641816,9.450102,3.995167
59.698019,-8.740046,10.608637,4.652399
59.731721,-11.385584,7.126296,6.352942
59.764526,-17.374594,3.694535,11.243423
59.798016,-11.765228,5.616549,12.006003
59.831805,-11.928488,10.516158,6.052758
59.864524,-18.543155,11.049336,3.863332
59.897986,-15.871879,16.774675,0.051178
59.931703,-11.596580,18.943600,-1.891636
59.964496,-2.984778,16.239103,-4.694299
59.997584,-0.691650,12.154599,-4.098271
60.031303,-0.170743,8.190108,-2.243447
60.064267,2.493949,2.950809,-1.243383
60.097776,2.676214,-1.141177,-0.412865
60.131278,1.607913,-1.540724,0.854461
60.164516,0.029180,-0.865385,0.367972
60.197476,-1.894779,0.562807,0.301979
