time_tick,acc_X_value,acc_Y_value,acc_Z_value
0.019135,6.111867,-0.005088,-7.977765
0.051762,5.954143,-0.019005,-8.041662
0.084925,5.724142,-0.018107,-7.813307
0.118261,5.765743,-0.028582,-7.843535
0.152026,5.737909,-0.258433,-7.819293
0.185433,5.718007,-0.081705,-7.943945
0.219286,5.738657,0.044145,-8.013081
0.251623,5.877825,-0.029929,-7.947537
0.285033,5.768586,-0.273398,-8.045403
0.318543,4.327824,-0.023644,-8.093888
0.352211,5.596197,0.379644,-8.263284
0.385157,5.882464,0.676236,-8.203127
0.418971,5.644831,0.509684,-7.780535
0.451950,5.374875,0.348668,-7.808668
0.485345,5.538285,-0.108192,-7.529135
0.518463,4.747871,-0.481401,-6.975007
0.552073,3.506434,-0.745222,-5.180788
0.585511,2.737568,-1.919470,-2.472700
0.618677,4.331864,-2.549766,0.231198
0.651942,6.077000,-4.381845,1.448544
0.685218,8.122769,-10.052714,-0.371115
0.718724,9.085721,-9.272027,3.856299
0.751562,12.516136,-15.971990,2.435738
0.785070,14.391910,-17.115412,1.723288
0.818469,14.618619,-18.573533,0.246013
0.851712,12.625076,-20.710883,-2.088866
0.884874,10.598611,-18.431522,-9.663792
0.918481,5.455982,-19.020666,-14.515964
0.951741,-5.398968,-16.969959,-12.852234
0.985063,-7.544848,-13.063081,-13.285450
1.018538,-8.589804,-10.057652,-10.150281
1.051572,-9.609023,-6.909613,-5.330880
1.084893,-7.068385,-5.717408,-4.505899
1.118605,-3.487579,-7.503995,1.209863
1.151911,-1.386442,-7.071228,-0.010026
1.184995,3.945785,-5.923766,-1.448693
1.218401,8.450786,-3.493415,0.209350
1.251970,11.612143,-5.656653,-3.933215
1.286406,26.476476,-10.550875,-0.050729
1.318790,23.212913,-10.225701,-1.614498
1.351604,17.361425,-18.595081,-1.646671
1.385068,11.533431,-12.518979,5.774123
1.418335,13.304156,-15.286177,7.774550
1.451726,13.467865,2.731882,6.472057
1.484919,13.983086,-19.536785,-11.214691
1.518545,11.976224,-10.849712,-9.283250
1.551796,1.174547,-8.069795,-15.385689
1.584902,-14.784424,-3.438945,-10.400185
1.618313,-14.512373,-4.973084,-10.661162
1.651842,-9.297167,-5.873935,-6.978898
1.685030,-1.903159,-5.707681,-16.379618
1.718257,11.464146,-2.928363,-8.604769
1.752162,24.341221,-10.633927,-1.174697
1.784919,10.021738,-8.138182,10.656074
1.818545,6.129974,-6.682156,14.143802
1.851968,5.552651,-18.502453,3.462289
1.884945,24.493857,-9.798171,-5.082024
1.918239,17.365615,-4.591195,-8.963762
1.952085,5.233014,0.142610,-6.795286
1.985259,-2.261853,-5.462416,-13.383916
2.018324,-11.723328,-4.248214,-9.468508
2.051971,-11.011925,-5.785496,-13.598952
2.084978,-3.075462,-5.511799,-17.939346
2.118875,12.675805,-7.795350,-11.287867
2.152382,23.439473,-7.814205,0.290906
2.184932,9.522679,-13.262405,2.263798
2.218812,12.062568,-9.141538,14.522549
2.251737,20.478787,-9.181493,7.128092
2.284999,12.250370,-7.326070,-3.919897
2.318433,12.550404,-6.856490,-10.678371
2.351757,6.710588,-4.024198,-5.665183
2.386273,-5.380861,-2.610072,-14.444136
2.419681,-14.653935,-6.867414,-12.950849
2.451974,-12.156095,-3.163602,-7.528686
2.485696,-3.248599,0.553829,-9.501280
2.519450,3.892063,-7.036511,-8.962565
2.551904,17.024579,-4.146905,-1.824148
2.585838,18.621718,-13.328398,-2.576253
2.618440,12.796118,-7.470625,14.457903
2.651877,13.345008,-8.309822,4.616186
2.685692,13.289640,-10.339280,-1.161977
2.719174,17.904180,-4.822543,-8.681536
2.753451,11.274997,-5.216104,-11.749515
2.785111,-4.569347,-5.563725,-11.560067
2.818456,-17.917947,-1.939223,-11.762534
2.851931,-14.171486,-6.294431,-18.049334
2.885121,0.012869,-1.581427,-16.374380
2.918448,12.972996,-7.987940,-10.947279
2.952112,19.707078,-8.324338,2.202146
2.984940,13.875193,-15.840304,0.278336
3.018225,9.214863,-4.966949,14.387421
3.051873,18.138970,-7.098463,6.063532
3.085054,16.202141,-6.689189,-8.202828
3.118458,11.086148,-4.023450,-9.766297
3.151828,0.005387,-4.481956,-10.647545
3.185074,-12.671017,-6.424321,-11.645962
3.218448,-12.514490,-5.787740,-11.096473
3.251754,-7.182861,-5.152656,-3.792551
3.285213,4.526250,-8.406941,-15.066800
3.318567,18.164708,-2.282055,-2.477788
3.351781,25.324226,-2.253024,6.815787
3.384894,6.298771,-8.819806,11.812814
3.418707,10.701865,2.410748,10.365468
3.451797,15.830278,-21.238973,1.383599
3.485163,17.229290,-4.462203,-4.119820
3.518732,1.405596,-7.289856,-8.777008
3.551881,-5.293470,-4.737696,-11.320040
3.585223,-13.126530,-1.404698,-10.996811
3.618835,-8.123816,0.178225,-16.176253
3.651859,2.723801,-4.513680,-20.584734
3.685638,15.526503,-6.488518,-0.915067
3.718569,16.611265,-4.380797,5.050898
3.751679,14.640318,-11.504101,5.988112
3.785450,14.879746,-4.603167,8.774015
3.818588,14.684762,-11.450828,0.358395
3.852258,16.225934,-7.435758,-9.790839
3.885497,4.309268,-7.688954,-8.688419
3.918597,-9.039332,-8.655947,-15.793466
3.952355,-14.877502,1.932938,-5.499528
3.985505,-8.130101,-3.572875,-15.843297
4.018617,4.306724,-8.245626,-15.839107
4.052192,17.193077,-7.659025,-2.360019
4.085417,21.852360,-5.979433,3.587839
4.118647,14.117016,-8.664626,13.306999
4.152178,13.782714,-2.355829,9.094251
4.185414,17.552220,-19.916279,1.457822
4.218638,16.402214,-7.356148,-8.999976
4.252049,5.874683,-11.849177,-15.044952
4.285590,-6.856789,-1.193103,-15.645020
4.318643,-12.631062,-0.692099,-12.100877
4.352159,-10.055707,-10.359931,-4.142117
4.385409,9.649426,-13.935499,-21.099207
4.418732,22.534881,-7.688804,6.158406
4.451858,12.836372,0.118667,14.287609
4.485490,2.226088,-11.508291,12.831883
4.518603,16.256462,-1.309974,9.777969
4.551932,11.191646,-22.995781,-4.199729
4.585761,14.325469,-3.362028,-1.028496
4.618588,7.605004,-9.640448,-13.258814
4.651951,-0.537368,-2.453845,-15.452580
4.685655,-12.543221,-1.727179,-10.331648
4.718580,-15.843597,-11.039160,-16.398772
4.752069,0.511779,-6.770445,-17.492512
4.785757,17.458843,-9.598398,-6.232329
4.818500,22.961363,-5.460172,1.032087
4.851740,14.756141,-10.550277,7.580612
4.885162,13.516499,-1.714908,8.350076
4.918588,15.741690,-12.882612,1.328680
4.951827,16.811338,-8.739298,-8.070543
4.985398,1.581127,-7.733248,-7.407476
5.018203,-8.008741,-3.747658,-12.016478
5.051787,-11.705969,-3.448522,-9.469406
5.085352,-9.067914,-2.037688,-16.853986
5.118459,1.004254,-7.889924,-16.284894
5.151749,14.914464,-6.563190,0.259331
5.185133,21.273092,-3.843579,2.431099
5.218480,14.266061,-12.722793,7.662916
5.251771,19.154447,0.239429,5.363951
5.285242,17.662806,-14.302125,-1.505109
5.318537,16.613360,-7.954570,-8.799155
5.351883,-2.350741,-5.294966,-10.398090
5.385382,-12.896678,-3.582602,-13.863222
5.418453,-10.994716,-8.081168,-15.459164
5.451778,-8.267922,-10.528130,-13.460682
5.485240,5.525416,-1.954786,-7.163558
5.518229,19.543070,-8.471587,4.188057
5.552121,12.095939,-10.526334,16.351934
5.585462,20.091960,-26.152499,13.605387
5.618509,27.602539,-9.181942,2.430800
5.651822,13.568425,-6.048269,-10.124094
5.684900,11.429429,-17.404522,-19.090400
5.718533,5.423210,-6.782567,-14.051922
5.751811,-11.970837,-5.089806,-14.111928
5.785261,-16.455038,-2.569369,-7.062997
5.818579,-16.218452,-13.160948,-14.752849
5.851824,4.715698,-13.654919,-10.840434
5.887272,22.778500,-8.067700,-0.912074
5.918172,21.966088,-2.826306,9.289236
5.952114,8.635296,-3.856448,16.484667
5.986106,11.075673,-6.854395,12.570008
6.018587,17.309499,-29.214792,-1.362499
6.052227,14.254688,-6.443476,-6.810400
6.085259,16.620094,-7.703320,-15.760545
6.118311,6.261959,-5.313971,-16.020924
6.151910,-17.251138,-2.122236,-11.136428
6.185350,-14.405079,-12.566566,-22.060064
6.218596,1.396468,-6.419084,-20.974105
6.252229,17.817836,-10.632431,4.969942
6.285376,10.638566,1.300996,15.151797
6.318752,6.404269,-14.173132,14.885134
6.351659,27.523229,-9.566225,4.262280
6.385404,14.715887,-6.596261,-6.840927
6.418710,11.830322,-7.036660,-4.566654
6.451982,1.608662,-4.311064,-14.023489
6.485152,-11.141217,-1.797960,-9.559042
6.518699,-13.422224,-7.310956,-12.311724
6.552037,-5.727733,-7.899801,-0.766022
6.585169,9.361663,-6.791096,-14.587194
6.618413,17.469916,-4.611696,-7.201866
6.652099,19.551749,-5.358415,13.196263
6.685458,11.782886,-9.761509,5.723094
6.718580,18.576526,0.795951,9.101284
6.752547,11.464296,-17.065282,-3.068728
6.785279,16.111906,-6.420131,-7.146797
6.818715,5.773225,-6.383469,-12.660392
6.852350,-12.814973,-5.211166,-16.014489
6.885395,-14.782927,-3.076060,-7.660372
6.918652,-12.547561,-6.940290,-16.281003
6.952464,8.240687,-12.551452,-17.566885
6.986145,26.446548,-11.561264,-2.283551
7.018563,20.182195,-1.782247,7.373507
7.052384,9.336672,-0.697935,12.221190
7.085198,19.311722,-6.239662,8.250863
7.118319,14.240172,-14.945290,-0.081256
7.152431,11.915020,-4.915172,-7.342231
7.185199,3.038500,-10.054210,-10.272689
7.218677,-10.645599,-3.418892,-14.347317
7.252336,-12.688525,-1.532643,-7.973275
7.284981,-8.605517,-6.381673,-12.210116
7.318220,8.031187,-14.119560,-21.703166
7.352870,22.229011,-6.861129,-2.646286
7.385135,16.472396,-2.969066,11.108894
7.418662,11.840049,-3.525438,10.997559
7.452033,21.594076,-7.180467,4.591345
7.485122,16.601389,-15.959570,-5.346443
7.518684,10.868268,-8.619733,-8.108553
7.552429,0.449078,-1.765637,-15.072038
7.585172,-8.560624,-3.102098,-13.889260
7.618751,-12.495934,-5.990656,-8.918271
7.652444,-8.885649,-14.908628,-4.399952
7.685176,2.416285,-12.056882,-9.590018
7.718859,21.298381,-10.574070,-0.012869
7.752088,20.109767,-1.162127,14.150536
7.784911,15.319697,-6.553762,10.951619
7.818850,17.577958,-7.435010,1.150156
7.851920,20.349196,-17.674927,-5.047008
7.885153,8.368183,-5.708280,-7.446832
7.918897,-4.439906,-1.748129,-16.120885
7.951935,-7.683567,-2.438881,-17.183799
7.985151,-13.639057,-8.226022,-12.562675
8.018891,-3.340180,-17.274482,-22.799450
8.051813,19.586765,-13.405314,-2.701354
8.085101,24.238716,0.412715,2.437085
8.118657,12.737159,-1.867694,16.698507
8.151766,18.020303,-5.016780,5.475585
8.185166,14.903091,-12.267280,-3.052267
8.218670,14.147394,-8.039118,-5.864507
8.251761,-0.390718,-6.392597,-7.288809
8.284962,-8.078774,-1.897921,-12.874531
8.318667,-7.479005,-6.641453,-17.073362
8.352284,-8.259991,-10.538754,-21.824825
8.385108,7.458204,-10.350653,-11.288016
8.418710,18.198528,-8.805141,4.967098
8.451989,10.632281,-1.364444,13.582043
8.485159,9.599445,-15.138329,17.731941
8.519679,25.919356,-10.345565,4.282033
8.552183,12.774270,-5.004958,-0.618474
8.585281,9.866558,-16.438876,-15.999974
8.618707,2.966522,-4.640877,-16.564576
8.652098,-5.585124,0.997969,-8.883554
8.685282,-10.450166,-2.934199,-7.666956
8.719081,-4.081062,-27.232622,-15.410530
8.752194,15.109299,-10.785515,-11.284575
8.785188,30.604078,-4.636687,-0.147099
8.818716,7.206206,1.000662,20.149273
8.852334,14.994223,-0.896661,12.697054
8.885122,17.668343,-9.192267,4.283529
8.918610,15.096130,-17.321470,-6.628734
8.952215,5.097437,-10.105687,-9.893194
8.985302,3.377741,0.345376,-14.012266
9.018593,-5.899075,-5.663537,-15.046598
9.052329,-11.102160,-6.261211,-14.418248
9.085179,-5.835027,-9.449653,-8.233355
9.118888,8.749623,-10.309352,-14.945739
9.152425,14.227154,-3.144447,2.532408
9.185178,9.119690,-13.776279,7.927185
9.218746,15.992192,-8.515133,13.350395
9.252036,20.354284,-13.024772,6.607784
9.285173,20.004568,-4.365983,0.227308
9.318747,11.338596,-10.016201,-4.944802
9.351807,9.332782,-5.602033,-15.467993
9.385168,1.023109,-6.801272,-12.264586
9.418799,-20.816681,-9.181942,-11.505897
9.452737,-17.478296,-17.454802,-12.467203
9.484932,-6.988026,-16.637004,-21.248999
9.518612,24.652628,-2.405061,-10.483985
9.552151,21.967136,-4.858009,9.574156
9.585160,13.358327,-0.694942,4.197485
9.618990,15.066202,-5.025309,11.888833
9.651984,21.907428,-9.696414,5.340009
9.685152,19.808536,-20.362215,-4.921308
9.718984,6.514406,-8.411729,-9.178200
9.752025,1.346338,1.146714,-15.100320
9.785189,-4.183119,-4.451728,-14.303920
9.819025,-10.866323,-7.853112,-12.306786
9.852108,-7.353604,-5.692268,-15.986805
9.885288,6.417887,-12.271769,-10.879342
9.918936,17.456748,-4.711059,-2.179101
9.952164,16.156949,-4.263477,10.564044
9.985172,14.073470,-9.411195,11.425838
10.018997,16.996895,-6.047071,2.660801
10.052108,18.454118,-10.741071,-7.982104
10.085288,11.509488,-9.593759,-8.271963
10.118905,-3.662361,-2.792337,-12.984668
10.152140,-9.393387,-2.508165,-13.168579
10.185281,-8.894477,-1.149407,-7.282524
10.218765,-1.607764,-14.822284,-10.702613
10.252199,14.352704,-14.398345,-13.476993
10.285152,23.420917,-6.087475,-0.059857
10.319306,15.282136,-1.361152,15.035076
10.351736,14.924639,-4.659133,8.342295
10.385425,18.693547,-4.269762,2.855936
10.419163,16.992854,-11.899906,-9.477337
10.451651,6.381972,-7.175828,-8.156588
10.485172,-3.110329,-7.443839,-13.822818
10.519071,-13.100342,-5.911196,-11.689359
10.551560,-9.510408,-6.853198,-8.669863
10.585123,-5.455234,-13.857685,-7.796547
10.619041,11.607354,-10.153873,-8.618686
10.651931,29.103159,-5.900870,0.843837
10.685106,19.783695,-0.823036,5.687779
10.719420,20.603290,2.387853,9.357173
10.752216,19.382503,-7.915813,-2.024968
10.785180,20.117998,-10.208642,-6.548675
10.819083,-2.320513,-9.756870,-9.554553
10.851879,-6.889561,-5.367992,-10.876798
10.885271,-12.159088,-6.442129,-8.635894
10.919089,-14.799837,-3.676129,-8.498971
10.951949,-2.540788,-10.301420,-18.387078
10.985155,16.086018,-2.922078,-4.652848
11.018977,21.375896,-3.744964,2.477040
11.051852,15.274355,-7.146797,5.147867
11.085175,17.514959,-0.629847,6.649534
11.118720,16.844409,-9.308689,-0.438603
11.151975,15.563465,-10.892809,-5.495637
11.185324,6.368056,-9.053548,-8.760397
11.219129,1.881012,-4.971288,-13.387058
11.251753,-11.618727,-4.069241,-12.949053
11.285245,-11.670953,-0.795951,-9.215911
11.319131,-1.322395,-15.521266,-14.856402
11.351810,12.481269,-10.659815,-12.285985
11.385319,18.533129,-1.412180,2.602141
11.419123,12.375023,-6.235921,12.467352
11.451715,12.025457,-2.438881,14.236431
11.485292,17.583495,-3.746311,0.429625
11.518769,19.567312,-20.329743,-7.617125
11.551858,13.308944,-4.962609,-2.311984
11.585241,2.577899,-0.945294,-11.453222
11.619180,-2.901128,-7.410618,-14.644807
11.651509,-7.217130,-1.898071,-12.488302
11.685423,-12.224332,-18.466837,-26.729074
11.718823,0.958313,-11.619326,-18.180122
11.752107,18.505146,-15.432079,2.880477
11.785185,11.165010,-7.322778,12.000766
11.819129,9.382463,-11.839750,11.862795
11.851798,20.496744,1.714459,13.185639
11.885155,18.377201,-10.504636,-1.744837
11.919068,16.107866,-15.977527,-5.971502
11.951861,6.483131,-8.309374,-8.468145
11.985155,0.994527,0.805977,-12.003160
12.019133,-8.197740,-1.002308,-12.282543
12.051857,-12.442811,-19.617592,-21.763472
12.085151,-0.439501,-17.716228,-16.636555
12.119128,12.995742,-13.600150,-2.081234
12.151931,19.008246,3.332249,5.539183
12.185359,9.889603,-0.514173,12.377716
12.219128,12.395823,-1.625122,10.368760
12.251858,15.392124,-7.125548,4.994633
12.285285,15.389430,-13.951362,-5.294367
12.319123,10.195174,-6.222603,-13.241007
12.351672,4.101713,-0.466437,-12.640190
12.385156,-11.991488,-5.032043,-14.739381
12.419130,-9.754176,-10.798235,-14.181662
12.451834,-0.576574,-19.535587,-11.762534
12.485285,15.465748,-12.067357,-7.959359
12.519113,16.527315,-0.430972,3.807515
12.551856,10.564193,-1.834174,13.030010
12.585282,18.416857,-3.839090,14.043691
12.619317,20.439431,-6.015198,4.159176
12.651789,18.926990,-16.725891,-8.520071
12.685236,-0.604258,-8.087154,-17.227495
12.719135,-13.378079,2.809097,-12.602779
12.751560,-16.519384,-2.298815,-11.078965
12.785117,-9.261701,-17.056303,-19.701392
12.818966,6.929217,-15.005446,-10.192331
12.852144,20.986076,-16.169968,-3.566889
12.885152,17.378035,1.671512,10.107184
12.919061,16.252421,-4.703727,6.487770
12.952048,18.665563,-1.194151,5.483067
12.985155,19.763344,-10.948776,-7.682370
13.019085,16.062973,-9.506667,-8.780150
13.051897,-1.945209,-8.539674,-12.324144
13.085152,-16.873739,-1.957479,-7.900100
13.119124,-11.363885,-6.030611,-7.819891
13.152136,-4.275748,-13.106178,-0.080807
13.185287,10.330302,-7.503846,-4.421650
13.219385,20.389300,-2.781713,0.829471
13.251893,16.610068,-4.934327,8.841654
13.285257,23.389193,-5.219696,6.148529
13.319142,18.090186,-3.228397,1.804993
13.351931,16.071204,-9.531059,-5.910896
13.385175,6.969920,-7.608296,-8.652654
13.419165,-0.312754,-7.048781,-12.300052
13.451891,-19.264135,-7.295094,-9.088115
13.485187,-13.145834,-4.282931,-11.730960
13.518532,4.398455,-20.931457,-17.393598
13.551774,15.071439,-3.645901,-2.418978
13.585210,17.075607,-2.343259,4.291460
13.618434,14.010471,-4.754007,4.824040
13.651723,16.495292,-0.500406,10.921242
13.685235,10.798385,-9.379021,-3.760228
13.718477,18.053673,-9.523576,-11.735898
13.751773,10.681813,-10.376541,-10.993669
13.785273,-12.074540,-1.884154,-11.930883
13.818556,-10.624500,-0.047287,-11.829724
13.851848,-8.524410,-7.520456,-18.652095
13.885293,5.300054,-9.140042,-11.176383
13.918678,18.506343,-11.547946,-3.907626
13.951969,17.142048,-7.156075,4.320192
13.985519,16.783953,-2.471353,14.026482
14.018564,14.794600,-4.379002,2.108170
14.051967,13.808303,-1.537432,-4.005343
14.085453,16.879275,-13.595062,-13.271833
14.118926,1.106759,-7.901447,-10.733739
14.151847,-17.883679,-1.677049,-9.458182
14.185365,-7.238828,-1.680191,-9.880475
14.218940,0.008230,-22.141320,-14.400590
14.251856,7.531829,-11.794707,-15.381499
14.285370,19.680292,-4.191948,1.513189
14.319011,14.416751,-5.947110,7.092477
14.351921,19.855075,1.075634,10.704708
14.385363,16.467608,2.362862,-1.169011
14.419017,14.678477,-17.917798,-12.007799
14.451910,10.601604,-9.413140,-10.861235
14.485670,-11.119668,0.727265,-7.423338
14.518939,-17.663105,-2.622642,-9.792186
14.551724,-7.564750,-6.178907,-8.569303
14.585651,6.287398,-20.306698,-12.119133
14.618275,15.874872,-8.907945,-5.422163
14.651900,21.912516,-11.546599,2.397280
14.685700,17.692735,-3.919897,4.191499
14.718289,19.391781,5.029051,3.390909
14.751900,15.075030,-1.904655,1.027000
14.785743,14.776493,-10.139806,-12.347488
14.818273,5.259650,-8.570201,-9.306893
14.851911,-15.110795,-6.762514,-10.333294
14.885363,-14.904288,-2.116251,-7.476611
14.919090,-9.320810,-9.215761,-12.558036
14.952086,2.954251,-19.195449,-13.188332
14.985495,21.039948,-9.334577,1.315960
15.018549,18.239679,-5.023663,8.928147
15.052435,18.754302,-7.876905,8.379107
15.085327,16.813433,1.960921,3.069476
15.118490,20.607929,-16.704941,-6.687394
15.152404,8.004850,-8.446446,-8.465152
15.185329,-1.633203,-2.261703,-13.355184
15.218490,-10.356639,2.182243,-3.384624
15.252201,-19.630012,-19.327284,-2.345803
15.285323,-2.990465,-12.190064,-17.962840
15.318247,20.135506,-11.338745,-10.760226
15.352260,7.247358,-10.541747,-1.471738
15.385437,8.265079,-11.272603,6.305355
15.418621,15.957475,-4.685919,8.969748
15.452133,10.868418,-8.180381,2.950660
15.485443,6.896445,-7.830965,-0.332058
15.518620,5.704988,-3.011115,1.210611
15.552170,4.772114,2.998845,-0.228654
15.585323,4.145708,1.018620,-1.973192
15.618484,4.334558,-2.373487,-4.126404
15.652057,13.110667,-11.466690,-8.567957
15.685322,12.637945,-12.212959,-6.287548
15.718601,9.015838,-10.006325,-1.274210
15.752168,8.738101,-11.899607,-1.731668
15.785509,8.022358,-10.822028,-2.081084
15.818493,5.863160,-7.037857,1.559579
15.851949,3.816045,-4.857560,2.653020
15.885326,6.532214,-11.746073,1.950596
15.918485,11.626958,-11.074476,0.052225
15.952059,7.921649,-9.127023,3.255183
15.985305,5.613706,-8.381053,4.696245
16.018486,5.385650,-7.002242,4.235494
16.051920,6.067423,-6.815039,1.996985
16.085026,4.882101,-8.187115,4.257192
16.118497,3.892812,-8.839110,4.116528
16.151885,5.473640,-7.433214,3.359335
16.185740,8.128455,-6.557803,1.471439
16.218714,7.181664,-6.748598,1.856321
16.251904,7.156375,-6.971566,2.899182
16.285364,6.484927,-5.718007,2.007011
16.318615,7.709754,-5.775320,2.543930
16.351917,9.219352,-7.536617,1.403800
16.385371,7.605603,-6.865020,2.509812
16.418596,7.754647,-6.991019,1.501218
16.452851,7.564900,-6.047520,1.651759
16.485307,6.420880,-4.389327,0.901599
16.518614,5.250522,-2.302706,1.171704
16.552828,2.609174,-9.541983,4.668561
16.585321,3.163003,-3.289451,5.349137
16.618723,2.254521,-5.448200,5.417524
16.651933,3.905082,-12.466006,3.753494
16.685325,4.041108,-13.652674,3.868420
16.718657,4.364037,-9.440225,4.648060
16.751835,6.227391,-5.873037,2.726794
16.785367,5.232715,-7.698681,2.751485
16.818640,4.320042,-6.442578,2.045320
16.852135,4.388579,-9.238656,0.361388
16.885320,5.663836,-8.532491,-0.089636
16.918556,6.451257,-7.194384,-1.490444
16.952689,6.202999,-8.331072,-3.324468
16.985319,6.129674,-11.855911,-3.057804
17.018670,6.724505,-11.066246,-2.628029
17.052195,5.331180,-10.401981,0.970584
17.085325,3.907626,-5.588715,7.833509
17.118726,2.668882,-10.004379,7.924193
17.152257,6.311191,-8.955382,13.468763
17.184874,9.251825,-12.676703,12.258750
17.218743,8.500917,-20.434343,9.905016
17.252041,12.208620,-27.197007,5.955340
17.285322,12.829039,-24.672830,1.182329
17.318991,17.190982,-22.515727,-5.884559
17.351967,7.590788,-19.606069,-8.862753
17.385379,-4.163366,-16.272324,-12.646325
17.418705,-9.023619,-15.283184,-13.154064
17.451921,-11.549293,-9.444565,-9.306295
17.485367,-10.146839,-10.277328,-7.820041
17.518696,-8.178586,-10.778183,-5.938131
17.552019,-3.609388,-8.421007,-1.453781
17.585818,-2.041579,-8.670761,-0.555325
17.618545,1.088353,-9.694169,0.095173
17.652102,3.986638,-11.107098,1.835820
17.685159,9.818223,-6.513509,0.707512
17.718582,19.478573,-21.168641,-0.189897
17.753213,30.297609,-11.351615,5.494889
17.785116,19.158637,-22.047943,8.490741
17.818510,18.434365,-22.774459,7.288659
17.852111,17.952964,-7.051924,8.835817
17.885127,19.282691,-2.367950,0.200222
17.918650,16.730381,-8.862753,-4.485847
17.952644,17.333591,-11.506944,-19.669069
17.985134,5.126767,-16.544075,-15.373418
18.018667,-14.661417,-8.861556,-12.559533
18.052367,-13.864868,-2.322907,-9.890800
18.085281,-11.922951,-5.126169,-3.924386
18.118695,-5.341206,-7.111781,-20.849602
18.152385,15.349925,-5.404804,-8.418912
18.185274,16.989562,-13.376733,-6.826861
18.218578,10.915705,-13.375536,10.262364
18.252305,13.551665,-12.731622,9.208728
18.284883,17.645747,-12.697653,6.227840
18.318496,18.916515,-8.593994,5.568813
18.352076,21.133325,-4.812068,-8.628562
18.385293,11.481205,-7.020798,-11.759092
18.418685,4.613791,-5.253814,-14.894112
18.452310,-12.322797,-2.930009,-9.710331
18.485281,-17.825169,-10.132174,-17.145490
18.518743,-5.519580,-16.850694,-13.064278
18.552163,21.137216,-16.246286,-4.358650
18.585278,21.115368,-0.392065,8.415919
18.618709,11.972633,-10.702314,9.308091
18.652274,17.453007,-3.559706,14.250498
18.685219,16.761058,-11.318843,-0.850720
18.718425,18.866235,-8.918420,-4.115480
18.752775,1.609859,-11.834812,-17.644998
18.785133,-3.062593,-0.072726,-14.844880
18.818881,-9.407753,1.992197,-12.095041
18.852399,-10.627044,-4.702829,-13.494951
18.885189,-3.720722,-10.461688,-10.248896
18.918887,10.927078,-14.759733,-13.244748
18.952079,24.892356,-10.228844,-3.255333
18.985137,16.859523,-3.118260,3.578412
19.018850,12.471393,-1.406195,9.167875
19.051931,14.430967,-6.038691,7.281626
19.085159,15.318649,-16.318114,-0.902646
19.118925,15.815464,-5.514941,-2.916541
19.151970,9.749238,-6.627387,-11.205114
19.185281,-6.351445,-5.739406,-13.194468
19.218861,-16.993603,-5.174204,-10.787012
19.252070,-10.763368,-6.329597,-5.400315
19.285286,6.167833,-19.194551,-16.606177
19.318932,20.453348,-14.577019,-0.327269
19.352056,17.510619,-8.821601,1.098379
19.385158,16.327093,-1.950446,13.465770
19.418939,16.414484,2.492453,6.579950
19.451942,11.731408,-9.729186,-3.865277
19.485154,10.447472,-11.864890,-5.334322
19.519030,3.054213,-6.007266,-10.628390
19.552095,0.153234,-2.283252,-13.315229
19.585279,-5.836673,-1.657894,-10.776986
19.619063,-9.070158,-5.091601,-17.322668
19.652043,1.484308,-13.941335,-14.174479
19.685282,14.096515,-10.925731,-7.944394
19.718766,20.409203,-4.949590,0.023793
19.752093,15.412326,-6.362968,7.021546
19.785285,14.222215,0.345077,10.435052
19.818926,12.700197,-12.022614,0.341336
19.851581,15.982465,-13.127876,-7.673990
19.885163,8.655348,-8.210011,-7.943796
19.919036,1.743340,0.158322,-12.013635
19.952099,-10.770102,-2.588673,-12.957433
19.985289,-10.569132,-4.545255,-8.861556
20.018661,-6.996556,-10.501643,-8.803495
20.052042,7.017356,-10.472013,-16.046812
20.085812,29.733904,-12.490397,-1.326884
20.118536,14.070627,-5.629717,7.205906
20.152080,7.546045,-1.876373,13.141943
20.185281,15.117529,-1.807836,4.547350
20.218374,19.109404,-9.659602,-4.695347
20.252296,14.095767,-11.053376,-7.552180
20.285185,3.808563,-4.575183,-10.872757
20.318680,-5.212812,-0.264419,-12.187071
20.351856,-8.699942,-6.664049,-11.932828
20.385188,-12.711719,-10.815743,-16.211269
20.418708,1.813373,-15.874124,-17.182602
20.451583,24.282561,-16.802658,-1.370280
20.485187,21.131081,-0.111185,4.449483
20.518556,11.766275,-2.022724,8.063959
20.552111,19.014830,1.912287,7.978513
20.585284,15.379853,-5.205629,-1.802300
20.618638,15.077574,-10.626146,-7.868675
20.652300,6.529371,-5.191712,-8.195645
20.685186,-0.494720,-4.363738,-12.166869
20.718663,-9.556199,-6.574264,-11.969191
20.752071,-7.210845,-12.740750,-14.949929
20.785194,-7.436955,-17.589930,-10.649640
20.819148,9.945570,-11.043799,-6.410105
20.851587,27.131164,-5.280750,0.344777
20.885105,15.890585,0.232096,14.182410
20.918797,16.127918,0.097418,9.126873
20.951972,16.955893,-3.611034,-0.183313
20.985155,20.103931,-12.176746,-9.081082
21.019106,7.176576,-7.791160,-10.005277
21.052043,-7.293597,-4.527148,-11.175485
21.085118,-15.513035,-1.264633,-9.537344
21.118753,-7.480950,-8.924406,-13.727645
21.152098,-2.224891,-12.897426,-14.810013
21.185283,12.537685,-9.984327,-6.705800
21.218836,22.177983,-1.636346,3.763221
21.252039,17.888168,-7.454763,1.185471
21.285157,21.867025,0.570888,7.701225
21.319060,11.785280,-8.350825,-2.873145
21.352097,13.712681,-9.393088,-8.376114
21.385286,3.834152,-8.620631,-8.132645
21.419035,-5.578988,-3.101949,-11.531635
21.452044,-9.558743,-0.374107,-6.472357
21.485168,-8.819357,-5.106715,-11.582364
21.519024,-3.554170,-8.039717,-17.032959
21.551580,15.924105,-8.030738,-8.609707
21.585120,24.335535,-9.501280,0.589294
21.618681,11.378550,-2.631621,5.950252
21.651952,11.187606,-3.257128,11.198829
21.685158,13.442576,-1.400957,2.877784
21.719031,18.390969,-18.138072,-8.523962
21.752003,10.111972,-5.088010,-7.138118
21.785155,-0.937064,-2.930009,-11.768670
21.819054,-19.318306,-3.065136,-9.515346
21.852014,-11.412669,-4.698639,-12.697204
21.885155,-4.850526,-9.987619,-19.053737
21.919403,10.633628,-11.483749,-10.313841
21.952500,26.220587,-10.027724,-2.699708
21.985157,17.381627,-8.193849,9.382463
22.018702,21.516860,2.703150,12.257403
22.052038,19.792824,-1.618688,1.827889
22.085153,14.919701,-8.050342,-5.200541
22.119285,4.747722,-13.159002,-13.720163
22.152275,-2.970712,-4.246268,-14.361832
22.185294,-12.114345,-3.392555,-9.953052
22.219252,-9.453693,-3.367715,-9.865211
22.252008,-4.495274,-14.151733,-11.438557
22.285162,9.219652,-17.025477,-9.992707
22.320309,22.789124,-8.333915,-0.560263
22.351879,15.979921,-2.606630,5.548910
22.385451,15.816212,-3.280622,9.779616
22.418795,13.938941,-4.004745,-0.106845
22.452406,18.928785,-14.241968,-7.481998
22.485199,12.080675,-7.994375,-8.520071
22.518523,1.143721,-1.526957,-12.778610
22.552014,-6.827011,-1.510945,-12.927953
22.585126,-10.921990,-7.121209,-12.453885
22.618572,-9.738763,-7.981506,-12.919873
22.651585,2.899631,-13.198209,-10.712340
22.685155,25.938061,-18.158423,-1.965410
22.718803,19.484260,-4.965153,7.575076
22.752224,18.547196,-1.143422,8.522166
22.785602,18.009229,-3.520350,1.568408
22.819032,13.522485,-6.022380,-4.638931
22.851959,9.928959,-14.830065,-12.902215
22.885350,2.927166,-1.299799,-10.380731
22.918978,-9.819720,0.031874,-10.737929
22.951893,-11.169649,-3.023386,-7.398946
22.985440,-5.250672,-10.681065,-6.419533
23.018863,5.723244,-21.925535,-15.298148
23.051834,18.556174,-8.330922,1.289922
23.085486,14.885433,-2.060134,9.099788
23.118595,12.440417,-6.746802,7.566696
23.151889,16.266338,1.401556,4.293107
23.186277,23.756117,-10.744663,-7.920751
23.219159,15.034028,-8.738550,-9.346549
23.251958,1.428492,-4.279938,-14.425281
23.285433,-14.524195,-5.611162,-11.979516
23.318638,-10.575267,-4.817455,-8.729421
23.352063,-6.099297,-9.518937,-1.107059
23.385325,11.682326,-9.761658,-11.706867
23.418471,26.387439,-10.620908,-0.236735
23.451827,16.697759,-6.369103,8.305333
23.485242,19.729525,4.090191,7.346870
23.518216,18.838401,1.343494,-0.873167
23.551942,16.170566,-3.845375,-8.425197
23.585185,6.412649,-12.172706,-11.349669
23.618908,-5.989609,-4.194043,-13.679610
23.651852,-12.585570,-2.828850,-9.936441
23.685288,-7.853112,-5.549958,-13.184292
23.718894,-1.098679,-18.128944,-9.522529
23.751910,11.085400,-15.529945,-8.945206
23.785125,22.314756,-8.914380,-0.801039
23.818778,18.876710,-5.083670,4.971737
23.851819,17.030116,-0.844286,8.672258
23.885166,11.896016,0.039805,-1.050793
23.919065,15.648462,-5.644382,-8.993541
23.952041,14.646603,-6.159453,-12.734615
23.985285,-2.240155,-7.740431,-10.334940
24.018713,-16.874188,-1.875924,-9.507864
24.051805,-9.174310,-2.211423,-7.595277
24.085170,-0.801787,-17.717276,-10.489671
24.118943,10.674630,-11.043649,-8.189958
24.153164,23.491249,-14.610539,-1.773419
24.185150,17.938299,-3.149236,5.523022
24.218942,16.228329,0.687909,9.086469
24.251708,15.145363,2.791589,2.221150
24.285282,17.057949,-10.213580,-11.954676
24.318920,11.174587,-6.629482,-12.211613
24.351940,-2.070609,-6.731089,-11.541811
24.385301,-20.764904,-5.007652,-7.728310
24.419018,-11.540913,-3.075911,-7.109387
24.451900,-2.114305,-18.971733,-2.948265
24.485283,17.954759,-13.006217,-1.245927
24.519086,21.589886,-10.921391,-4.349372
24.552303,21.287308,-7.082750,5.798515
24.585107,25.428377,3.402731,6.102140
24.619068,13.258814,-1.046154,-6.610328
24.651797,11.184164,-7.146797,-12.432336
24.685152,7.188847,-10.630186,-10.456600
24.719299,-17.970173,-9.166079,-7.131534
24.751603,-20.056943,-0.398200,-4.693252
24.785646,-4.076424,-4.498267,-12.474984
24.819431,8.053185,-20.080138,-7.141560
24.851517,18.456512,-11.971735,-1.341848
24.885117,20.482678,-13.652225,3.004830
24.918671,21.025433,-7.111033,7.508185
24.951957,22.897316,5.849543,2.250780
24.985443,11.052628,-1.877420,-6.961240
25.018672,10.916603,-8.972142,-11.222922
25.052232,1.834323,-10.845373,-9.633714
25.085395,-15.871430,-4.547500,-6.445720
25.119356,-12.061072,-1.661336,-5.165974
25.151935,-8.464254,-3.671490,-6.595064
25.186043,7.503696,-15.830877,-13.326752
25.218432,23.395178,-9.603037,-1.640386
25.251597,20.178902,-7.385927,4.144810
25.285953,15.227966,-10.706055,5.028302
25.318575,15.184719,-0.763329,7.357794
25.351871,10.064835,-6.979646,-1.850634
25.385493,13.491210,-3.443883,-10.499847
25.418356,8.176341,-9.127621,-12.176746
25.452031,-6.772989,-6.451856,-11.793810
25.485485,-17.071567,1.511244,-7.167299
25.518575,-9.871347,-5.726836,-18.606305
25.552086,9.105324,-19.392229,-7.366922
25.586459,23.281749,-13.635765,-4.836011
25.618642,13.416837,-17.402128,10.796140
25.652171,20.449307,-4.100516,13.097649
25.685769,23.004311,0.867331,-0.971332
25.718489,18.769116,-9.157400,-10.553569
25.752237,10.652333,-8.428639,-12.238099
25.785317,-10.827116,-9.551260,-12.852533
25.818775,-14.555769,-5.964319,-9.586277
25.852162,-7.234638,-4.286373,-6.375687
25.884839,-7.419447,-21.466131,-11.768819
25.918722,5.895633,-11.848878,-7.056862
25.956082,28.757633,-12.750627,-0.503100
25.985101,16.965769,-3.683461,3.845674
26.019387,19.663981,2.588823,14.387122
26.052426,18.815805,-2.712727,2.574457
26.085123,20.548521,-9.647032,-10.240067
26.118675,9.892147,-10.086384,-10.978555
26.151888,-5.155798,-7.095470,-12.276857
26.185254,-12.727432,-4.699537,-9.058935
26.219183,-11.820745,-5.228824,-15.066052
26.251804,-5.725040,-9.840670,-7.170591
26.285481,13.838830,-8.673455,-0.976121
26.319181,27.385856,-8.151500,-2.384261
26.352091,21.843231,-8.410083,1.478323
26.384937,17.581550,-1.006050,3.987985
26.418669,14.178220,2.621894,-0.158921
26.451764,15.770122,-7.911174,-8.531893
26.485272,5.976141,-7.658576,-6.252232
26.518555,-5.267731,-8.424150,-8.737352
26.551987,-19.403902,-5.946661,-4.318695
26.585365,-12.956685,-3.316686,-11.677687
26.618578,-0.555774,-9.305846,-11.303130
26.652340,24.407962,-8.369979,-3.772798
26.684862,22.039114,-10.327309,-2.172666
26.718450,16.771233,-5.463314,7.997518
26.752045,18.895714,4.999272,3.862434
26.785436,12.340904,-3.520799,-6.384666
26.818605,13.619005,-11.301784,-11.689209
26.852186,5.608767,-10.796888,-11.382591
26.884897,-10.293789,-1.293963,-10.100001
26.918501,-13.437937,-1.776860,-5.473191
26.951999,-10.987533,-9.827801,-1.818461
26.985027,-0.352708,-6.433001,-16.252122
27.018503,11.947343,-9.885712,-7.035014
27.052137,15.385240,-19.466602,-3.169288
27.088436,16.777818,-18.234143,-1.445850
27.118516,18.631744,-1.198490,1.916926
27.151829,16.682495,5.714565,2.044123
27.185346,16.780361,0.536320,0.058810
27.218620,11.055471,-0.249156,1.655350
27.251846,3.354845,-1.650113,2.012249
27.285663,1.844200,-4.570096,1.130552
27.318693,1.690367,-9.968914,-0.124653
27.352068,5.992901,-16.430047,-4.887039
27.385075,7.704217,-16.597797,-4.548397
27.418458,8.479817,-11.563808,-6.329448
27.451821,6.658513,-13.405165,-6.211080
27.485420,9.874040,-9.137049,-4.277244
27.518580,10.331798,-7.496363,-5.990357
27.551863,11.259734,-3.685706,-4.084953
27.585367,13.303857,-1.648018,-4.647461
27.618535,11.422396,-2.642545,-4.650903
27.651825,11.933576,-1.463508,-5.422462
27.685649,10.216423,-2.966821,-5.786992
27.718684,7.617425,-2.670977,-5.359612
27.752072,7.949333,-4.447538,-4.881802
27.785661,8.219288,-5.621936,-3.526635
27.818299,5.730128,-5.861814,-0.099662
27.851952,4.532535,-9.576101,2.772435
27.885924,3.815297,-10.848515,4.551540
27.918680,4.498267,-16.521180,7.755246
27.951894,8.274507,-16.337867,7.713196
27.989971,9.705991,-20.412645,5.762600
28.018218,9.673219,-24.061538,4.835562
28.051790,12.137839,-29.760989,2.893197
28.085694,17.599208,-26.571499,-1.293514
28.118277,16.459078,-25.893168,-4.442450
28.151546,3.885030,-25.143756,-8.867242
28.185256,-2.570417,-18.272751,-11.745026
28.218707,-6.923231,-15.439261,-10.785964
28.251825,-9.535997,-13.416388,-7.512824
28.285679,-10.648891,-10.760525,-2.809097
28.318604,-9.977593,-10.537557,-1.470541
28.352063,-4.789023,-17.120051,1.439565
28.385660,-0.629249,-7.347169,1.702937
28.418577,-1.075783,-8.854822,-4.368826
28.451954,3.232288,-1.602826,0.711552
28.485715,7.061202,-4.687116,-3.272841
28.518588,7.298236,-5.958782,-3.541001
28.551888,21.916107,-4.685919,-1.921565
28.585395,23.470898,-10.038348,-2.531210
28.618614,23.604978,-23.999437,1.677647
28.651827,17.509721,-25.465189,8.460962
28.685663,14.126444,-17.432655,9.023470
28.718575,10.445826,-11.140768,5.819913
28.752076,12.069452,-1.197144,0.635833
28.785715,17.373845,-5.295714,-8.997581
28.818355,16.039779,-8.356661,-7.683567
28.852029,-12.737608,-13.272581,-9.347746
28.885373,-21.387269,-9.604533,-10.976460
28.918577,-12.788486,-7.147396,-15.224374
28.952332,-9.169671,-9.911002,-9.043671
28.985679,-9.152911,-4.854417,-2.700307
29.018615,5.978236,-0.908183,-1.279746
29.052238,20.077295,-9.502327,-5.949804
29.085836,19.729525,-9.269782,-1.658343
29.118804,18.203017,-22.355758,-1.928898
29.151966,15.144914,-20.878034,10.991424
29.185334,14.695686,-24.718920,3.351703
29.218713,16.701200,-8.002157,2.551263
29.251629,12.689572,-3.709349,-9.417928
29.285309,7.469727,-8.042859,-10.478747
29.318557,4.327674,-7.498608,-12.205028
29.352247,-11.591792,-13.432101,-6.036596
29.385306,-10.924234,-5.249475,-7.120311
29.418597,-13.019834,-7.948884,-11.206162
29.452429,-1.548655,-1.203578,-8.372523
29.485532,6.222154,-2.915194,-12.328484
29.518607,18.706266,-4.575932,-14.803129
29.552659,20.364160,-2.398627,-2.999443
29.585242,16.963375,-9.404461,3.283316
29.618665,13.973658,-14.641216,3.942343
29.652330,6.171275,-3.920047,10.116462
29.685530,9.114602,-10.407218,0.467036
29.718631,14.754346,-7.668154,0.988691
29.752084,18.518614,-2.576103,-6.652377
29.785492,11.814460,-5.706634,-8.515282
29.818617,1.549253,-6.147931,-14.974321
29.852323,-18.452172,-10.807812,-12.846099
29.885238,-20.327348,-9.896487,-12.760653
29.918610,-10.313242,-9.273972,-6.637413
29.952428,12.335068,-14.842785,-7.216980
29.985272,28.458946,-13.826110,-4.297895
30.018547,22.085054,-11.350118,1.898370
30.052182,25.390517,-8.320148,4.606608
30.085630,20.922628,1.325687,1.736157
30.118558,15.045850,-7.312752,-7.979261
30.152675,11.673796,-9.359568,-14.303621
30.185366,5.085765,-7.630443,-11.698936
30.218821,-12.913438,-3.600260,-4.986103
30.252323,-16.501277,-4.353263,-4.517571
30.285145,-12.518979,-7.517164,-8.055729
30.318837,-1.158087,-5.053592,-9.128519
30.352423,7.975969,-9.053847,-7.026335
30.384875,19.518977,-8.536532,-2.112210
30.419112,25.662119,-14.814502,-1.521121
30.451986,22.799599,-9.412092,0.615332
30.485108,18.170245,1.043161,5.084269
30.518824,14.178071,-9.461026,-4.909635
30.552177,10.629587,-8.152997,-11.194938
30.585284,6.332291,-7.915064,-13.669883
30.618784,-9.688782,-0.266963,-9.132110
30.652136,-14.853858,-2.095749,-8.142222
30.685282,-10.142649,-3.869767,1.021163
30.718970,-3.508678,-3.445678,-11.275147
30.752279,13.853495,-6.644596,-7.882293
30.791339,22.162869,-15.223177,-2.757770
30.818664,19.171656,-10.925731,-1.582325
30.851949,18.871921,-1.034931,7.049230
30.885157,17.565388,1.295160,-0.726816
30.918538,14.863735,-8.998629,-7.384879
30.952119,7.395953,-6.721063,-7.485439
30.985399,-1.726131,-3.403778,-7.689104
31.018806,-14.107439,-7.100558,-8.495380
31.051988,-11.442897,-4.317798,-7.698232
31.085160,-8.637840,-1.545363,-3.123348
31.118559,0.705566,-8.878765,-15.664324
31.152027,21.392956,-8.131149,-10.383126
31.185152,23.470299,-12.781303,-3.641711
31.218603,16.149317,-13.419231,0.303177
31.252159,16.105771,3.133523,8.577983
31.285284,13.324058,0.946941,0.472273
31.318769,16.377672,-8.670612,-9.793233
31.352432,6.710139,-10.029968,-12.017077
31.384886,-1.114690,-0.454017,-11.321387
31.418567,-11.784681,-4.921158,-10.347062
31.452336,-10.211784,-5.530354,-6.532214
31.485184,-8.394371,-10.121999,0.099213
31.518607,6.453352,-14.890670,-11.921455
31.552069,23.427052,-13.053953,-4.862797
31.585116,24.586037,-7.700626,-0.930629
31.618503,20.419678,-3.505685,8.831777
31.652329,16.096493,3.067531,5.787591
31.685382,10.568832,-2.605583,-1.523814
31.718632,9.450551,-9.050405,-7.891870
31.752423,4.721235,-6.181750,-6.623197
31.785201,-2.777223,-6.983088,-11.880004
31.818620,-15.720590,-5.168069,-8.851380
31.852329,-12.468101,-3.670741,-9.431396
31.885393,-5.779360,-6.443326,-3.719974
31.918643,11.409975,-10.079949,-9.922525
31.952393,28.873307,-9.483622,-5.256508
31.985234,24.743611,-10.781625,-0.685963
32.018625,19.854327,-5.274166,6.277522
32.052321,15.188011,2.983880,4.535229
32.085772,14.386823,-4.551989,-5.386996
32.118699,6.806958,-7.676085,-8.699193
32.152427,-1.897772,-9.711229,-11.698188
32.185680,-14.772003,-4.343985,-8.569902
32.218707,-12.344795,-1.795715,-6.363866
32.252326,-6.703106,-5.696009,-4.415514
32.285667,-0.122109,-8.997731,-10.508975
32.318903,21.425428,-7.963998,-5.059428
32.352124,24.569726,-9.804456,-1.532493
32.385598,21.050573,-9.680851,-2.998845
32.418568,19.303790,0.399846,3.052566
32.452443,11.886289,-1.395869,-7.127793
32.485488,12.696755,-7.057161,-10.549379
32.518729,3.125592,-7.978663,-11.466391
32.552453,-5.928405,-5.050300,-10.344368
32.584964,-14.461794,-4.381246,-4.655242
32.618691,-9.373036,-4.818503,-9.918335
32.652337,-2.089016,-6.492409,-5.926160
32.685309,9.501729,-13.687541,-9.765699
32.718947,23.088859,-10.439092,-0.959062
32.752096,19.665178,-14.875706,-0.118368
32.786135,20.465768,-5.381460,6.131919
32.819450,22.092088,1.610757,-1.346038
32.851992,13.562589,-3.216725,-7.374404
32.885164,7.395504,-8.227818,-11.908286
32.918999,1.375967,-8.093289,-6.725852
32.951975,-10.713836,-2.708837,-5.037580
32.985507,-9.987170,-2.846059,-5.424258
33.019318,-6.674225,-9.071505,-8.004850
33.051857,-4.045298,-7.547242,-13.517547
33.085427,10.685554,-14.435756,-12.283591
33.119650,24.924679,-10.709048,-2.727093
33.151837,20.112611,-7.518511,-3.580806
33.185097,21.722021,1.311620,8.287675
33.218824,17.161502,2.150818,-0.904442
33.252220,13.309393,-8.566610,-8.273459
33.285148,10.127685,-10.417094,-6.548375
33.319141,2.924771,-5.425305,-10.220613
33.351973,-9.400570,-1.645474,-5.873486
33.385222,-13.983086,-4.096027,-4.762985
33.419083,-7.394906,-6.856490,-4.686069
33.451958,-0.733250,-9.439926,-12.399564
33.485188,12.291672,-6.515604,-6.146734
33.519089,23.824504,-7.142907,-2.524177
33.552591,22.498667,-9.232371,-1.274359
33.585151,21.955015,-3.927529,4.357453
33.619080,12.397320,-1.932639,-5.047457
33.651749,12.828740,-4.063255,-8.959572
33.685115,9.264694,-6.020285,-12.539031
33.718769,-0.906687,-4.189404,-8.514235
33.752053,-13.351144,-3.038201,-6.596860
33.785161,-9.241051,-4.735152,-7.423188
33.819086,-1.789879,-7.637177,-1.411881
33.851927,3.491918,-11.018061,-13.937744
33.885345,17.206694,-8.078175,-4.975179
33.918806,20.229781,-6.135660,1.505258
33.952277,17.401380,-6.552715,0.329364
33.985277,18.993431,1.282889,7.089933
34.019262,12.948455,-4.415215,-5.989908
34.051805,15.120971,-7.610242,-9.307342
34.085184,7.209498,-7.209648,-7.334150
34.119132,-7.202016,-3.113621,-7.748512
34.151862,-14.596023,-4.541065,-7.527040
34.185751,-9.511006,-3.140856,-12.197397
34.219118,-3.404527,-6.581147,-4.421051
34.251798,9.343706,-13.183843,-14.142605
34.285225,30.359711,-14.313498,-7.448627
34.318769,19.176594,-9.995101,4.031082
34.352222,19.622231,-4.241480,5.875132
34.385629,19.301995,-0.648403,-4.507994
34.418890,13.451554,-9.884515,-9.008954
34.451825,5.097886,-7.744920,-10.453458
34.485484,-4.573088,-3.864080,-12.292121
34.518529,-11.915170,-2.489909,-7.277885
34.551886,-9.866109,-6.064430,-7.993328
34.585497,-5.614005,-7.465687,1.068900
34.619053,-0.323229,-15.949544,-14.844431
34.651951,19.272964,-7.871369,-7.276239
34.685246,19.193653,-6.194470,3.095963
34.718555,17.526930,-9.598248,1.565565
34.751828,22.352915,0.807623,6.951663
34.785159,14.942297,-1.312818,-2.165483
34.818869,11.660029,-7.883041,-9.335625
34.851944,9.764053,-7.714692,-11.159024
34.885839,-0.022147,-3.004980,-9.984626
34.918820,-13.018637,-4.037516,-8.932936
34.951951,-11.950785,-4.501110,-6.047221
34.985358,-5.450894,-10.196670,-3.843729
35.019079,6.765058,-17.932163,-14.689401
35.051854,20.472502,-13.923079,-1.319402
35.085312,25.120262,-7.804329,-0.331010
35.119145,23.151111,-2.529864,8.513038
35.151995,20.230080,4.407134,4.447089
35.185273,13.454098,-6.943133,-4.975927
35.219083,8.433727,-7.820041,-9.261552
35.251857,3.176172,-6.675721,-8.941615
35.285268,-16.119089,-5.817370,-5.100281
35.319129,-13.798875,-3.239919,-6.556905
35.351927,-5.805997,-3.975265,-12.789833
35.385380,6.233078,-16.212167,-12.539780
35.419124,17.925130,-13.365509,-8.659987
35.451577,21.694037,-5.742847,0.754500
35.485168,17.717575,-7.511926,5.457179
35.519385,23.651517,5.433685,8.103914
35.551865,19.004654,0.464192,-5.613107
35.585156,10.854351,-8.226172,-9.087667
35.619136,5.238102,-9.189873,-10.608039
35.651736,-2.390396,-4.766876,-10.497004
35.685156,-13.402471,-3.777437,-6.928319
35.719027,-9.818223,-3.473063,-5.728033
35.752015,-4.578176,-8.932936,-3.892662
35.785388,8.964510,-19.114043,-13.189829
35.818841,20.268688,-12.269524,-2.015242
35.851800,15.944456,-15.076527,4.286971
35.885159,17.961044,-7.158021,9.640298
35.919181,23.648673,3.290349,4.042604
35.952198,24.475151,0.230600,-3.565094
35.986561,12.974792,-7.349115,-9.789642
36.018561,1.387789,-8.940268,-9.918933
36.052006,-1.522617,-4.026892,-7.660222
36.085363,-14.089931,-4.195988,-3.765316
36.118617,-7.146648,-7.560560,-4.646413
36.152437,-7.910725,-9.838874,-12.955637
36.185153,10.513315,-16.385603,-15.594890
36.219211,27.228133,-12.504763,-9.594208
36.252544,21.929875,-9.026313,-0.538565
36.286021,16.526717,2.774680,12.182283
36.318753,20.787201,8.762043,5.837571
36.352424,14.789212,-5.961925,-2.788596
36.385284,9.659452,-10.198167,-11.448583
36.418625,8.381501,-8.537429,-9.487662
36.452044,-1.736606,-4.026143,-9.548417
36.485335,-15.885796,-2.322459,-6.173071
36.518753,-7.470625,-7.130786,-14.191539
36.552032,-4.027490,-11.296546,-7.518810
36.585315,5.739256,-14.858048,-11.312109
36.618708,22.799150,-12.583326,-4.059514
36.651792,27.148523,-10.308454,-0.435760
36.685357,21.058055,-1.964513,6.166187
36.718559,21.643009,5.959231,4.146007
36.752162,16.815378,1.982320,-3.803924
36.785798,9.216808,-3.306361,-8.846592
36.818577,6.633522,-7.711251,-8.059320
36.852333,-4.693701,-9.018232,-8.532790
36.885538,-17.876646,-2.598699,-6.455297
36.918267,-8.414273,-4.967248,-12.691967
36.952098,-1.258647,-9.205286,-7.201417
36.985329,16.464166,-15.543413,-12.705584
37.018776,25.585352,-14.847424,-4.062058
37.052059,21.645104,-12.656651,1.618688
37.085409,25.718086,1.770126,9.529113
37.118731,22.480860,9.500082,-2.742506
37.152025,15.558377,-3.084291,-6.440034
37.185894,7.938858,-11.527894,-10.772646
37.218808,-5.134399,-11.100663,-11.992386
37.252057,-20.417583,-4.497668,-3.676877
37.285330,-11.425089,-4.747722,-6.654323
37.318767,-5.112701,-10.875600,3.779083
37.352476,-2.253323,-8.066054,-3.241865
37.385212,17.483085,-12.735812,-6.775084
37.419395,28.339232,-9.615607,-3.492666
37.451988,26.810779,-12.168516,-4.888685
37.485167,24.400779,5.807643,5.426652
37.518566,19.061668,-0.245265,-2.676813
37.552252,14.345970,-5.712171,-8.925603
37.585268,5.269826,-11.061756,-7.283122
37.619152,-3.745862,-9.490056,-7.682519
37.651951,-18.077467,-7.168945,-5.149214
37.685180,-14.724567,-4.686967,-7.469128
37.718921,-5.927357,-5.515540,-9.020477
37.751863,9.669927,-13.578601,-9.546173
37.785319,23.209471,-8.694405,-3.305313
37.819337,19.719948,-11.824935,0.680127
37.851778,27.476390,-10.395696,2.416734
37.885339,19.539927,1.636196,-1.467848
37.918555,13.364761,-6.784213,-9.105025
37.951948,7.274443,-7.152634,-11.143611
37.985356,-0.706913,-7.307664,-13.927119
38.018322,-15.854670,-6.026421,-7.635980
38.051900,-13.832844,-1.960173,-5.820662
38.085355,-8.569453,-7.218177,1.483560
38.118617,-0.107593,-12.444756,-13.979943
38.152390,20.411298,-10.167340,-5.564473
38.185747,20.561839,-13.332887,-1.608662
38.218885,22.092237,-12.139934,-2.954251
38.251841,26.132597,4.878210,7.475862
38.285387,14.166847,-1.831031,-5.142630
38.318699,8.989052,-6.579950,-7.762279
38.351892,5.458226,-6.381823,-9.942128
38.385355,-5.337465,-10.857344,-11.072680
38.418665,-17.744960,-4.263028,-6.235921
38.451797,-12.163727,-4.776753,-12.718154
38.485359,-4.327375,-7.568940,-7.242868
38.518584,8.249666,-14.482744,-12.535440
38.552385,25.023294,-12.900419,-6.365362
38.585444,19.127960,-11.202570,2.948116
38.618501,20.771788,-11.102010,1.731967
38.651825,20.309840,7.822884,4.656290
38.685409,16.185980,-7.187051,-6.436442
38.718703,12.145171,-7.028879,-7.376499
38.751988,4.812068,-7.928383,-11.143611
38.785354,-12.044462,-6.704603,-9.778119
38.818623,-20.015941,-2.382765,-2.610372
38.851879,-11.014619,-5.973148,-0.007781
38.885350,-2.636110,-11.605858,-9.810592
38.918547,13.322861,-10.110626,-6.116207
38.952187,24.645445,-12.408692,-5.668924
38.985946,20.929811,-13.229783,-4.090191
39.018517,23.861765,-2.810295,1.193552
39.051950,15.623622,5.811533,-2.940933
39.084903,12.139784,-6.049017,-10.526483
39.118568,8.367884,-6.606287,-9.521481
39.152120,1.111099,-5.204282,-8.561971
39.184903,-17.586189,-6.731089,-5.430543
39.218511,-15.686172,-4.007438,-4.990742
39.251956,-5.119285,-5.085316,-3.647696
39.285412,1.980524,-10.063638,-12.445505
39.318760,17.737328,-9.023320,-3.731048
39.351596,23.899325,-14.227602,-4.544058
39.385525,23.460273,-13.275574,-0.852965
39.418554,24.016795,3.324019,3.067231
39.451851,15.264030,1.890140,-6.438986
39.485637,8.350825,-5.673263,-11.490783
39.518656,7.005385,-7.088137,-9.791288
39.552072,-10.350354,-6.885970,-9.509809
39.585637,-19.324292,-5.217900,-5.060027
39.618616,-10.988132,-2.858031,-10.103293
39.651952,-1.298601,-7.122106,-6.135361
39.685437,8.194747,-12.232263,-12.108958
39.718884,20.963780,-12.224482,-5.086513
39.751974,22.134436,-10.417693,1.664478
39.785569,22.593990,-9.017634,0.632541
39.818705,20.319118,4.403842,-1.080572
39.851969,13.601496,-2.475094,-12.912241
39.885649,11.164860,-8.126360,-11.793810
39.918620,3.587091,-11.235043,-8.652954
39.952562,-18.793059,-6.535506,-5.820512
39.985414,-13.955701,-0.783231,-3.389113
40.018457,-5.847747,-3.742720,-8.680787
40.051783,1.296207,-11.526098,-12.018573
40.085340,13.312985,-12.205178,-4.997775
40.118215,24.487871,-16.706288,-4.368826
40.152197,23.149764,-10.997859,-1.070695
40.185561,22.573190,4.362990,7.191840
40.218532,15.194146,3.000341,-5.702294
40.251637,11.141666,-7.784127,-11.744278
40.284906,6.982490,-9.776772,-10.063937
40.318571,-9.936741,-9.063125,-11.085699
40.352501,-18.599571,-3.137863,-4.711508
40.385127,-10.810955,-6.697719,-10.645450
40.418514,-2.414190,-22.903751,-0.593933
40.452245,18.065495,-15.800200,-2.410598
40.485153,29.285574,-9.880475,-1.585168
40.518598,22.229609,-7.016010,4.789323
40.552461,25.871769,3.853456,1.050045
40.585106,15.837461,1.549553,-5.267881
40.618831,9.164433,-4.994483,-11.512630
40.652304,2.822565,-10.807513,-9.748639
40.685292,-14.847723,-11.292206,-4.777201
40.718904,-18.712551,-5.909849,-5.044613
40.752137,-8.498073,-4.456966,-6.073409
40.785159,2.510260,-10.369957,-8.848088
40.819142,14.944542,-11.734850,-8.427143
40.851983,19.034732,-20.516198,-0.196780
40.885159,24.414546,-18.126849,-5.034138
40.918803,31.080541,2.622792,2.042626
40.951546,18.966645,0.334901,-6.326156
40.985118,9.257212,-7.178223,-9.929707
41.019060,4.374662,-7.064494,-9.042774
41.051820,0.020800,-7.375302,-9.836779
41.085270,-15.895223,-8.643676,-4.528196
41.118775,-16.342506,-8.552543,-9.425710
41.151932,-7.858050,-8.281241,-8.694704
41.185355,5.848944,-18.842591,-8.135937
41.219919,22.219583,-16.720953,-0.038907
41.251838,23.428249,-13.933105,-3.857646
41.285677,26.635846,-1.381504,5.769035
41.318771,31.205792,14.408970,0.456710
41.351655,12.274014,-10.896401,-6.719567
41.385255,3.905980,-10.463035,-9.699557
41.418577,1.169909,-9.019579,-10.675977
41.451968,-19.899220,-7.698681,-3.206699
41.484949,-14.019000,-2.841720,-4.762836
41.518559,-7.909827,-5.435481,6.163045
41.552242,2.623091,-13.280662,-13.225144
41.585411,19.032189,-8.613747,-4.503953
41.618523,30.004608,-16.564427,-3.333297
41.652376,24.126783,-11.764330,1.302941
41.685322,24.392997,5.700199,2.246440
41.718540,20.129371,0.823186,-7.910575
41.752166,7.138417,-9.774977,-8.192203
41.785282,1.308927,-10.090424,-10.768606
41.818899,-14.839792,-5.395975,-5.475435
41.851975,-17.966282,-2.071507,-3.622556
41.885155,-10.211036,-6.243104,-10.924534
41.918972,-5.589763,-6.816835,-7.997069
41.952155,9.326646,-13.097948,-7.801635
41.985116,24.296927,-15.780896,-1.104964
42.018596,19.989754,-17.014553,-4.106651
42.051964,20.213470,-5.687928,4.604513
42.085018,26.644076,6.834193,-0.435760
42.118657,14.049527,-5.811533,-7.587496
42.152207,9.163835,-6.486124,-10.359482
42.185290,8.688718,-9.904867,-8.489993
42.218870,-11.559618,-10.219416,-6.666444
42.251955,-16.681298,-4.865042,-4.447837
42.285155,-10.597713,-6.715377,5.458226
42.318914,-4.579074,-17.349454,-14.998862
42.351805,9.137797,-6.506326,-4.999571
42.385128,25.549139,-14.304070,-5.137392
42.419116,23.275614,-13.490761,-0.631793
42.451580,26.286430,1.842853,8.167063
42.485127,22.157182,1.619436,-2.751635
42.518493,12.847745,-4.124758,-8.506004
42.552057,6.791395,-12.330429,-14.076613
42.585155,-9.184635,-13.065475,-11.793660
42.618513,-19.318306,-3.299477,-4.003248
42.652350,-14.104147,-4.964854,-6.901084
42.685157,-6.043330,-10.078752,0.877207
42.718659,11.666763,-9.683994,-4.422099
42.752507,29.687066,-11.102160,-4.049637
42.785107,27.312082,-17.753490,-0.841442
42.818813,27.852742,-2.415237,5.065114
42.852085,18.042151,5.741950,-4.837657
42.885153,13.546428,-7.121957,-10.406470
42.918739,5.520628,-8.414423,-11.052628
42.953018,-9.602438,-15.010684,-10.138459
42.985157,-24.891159,-3.427272,2.605284
43.018702,-14.990781,-3.021291,-8.038520
43.052071,-3.361130,-9.807599,-4.269912
43.085161,12.489949,-7.467782,-6.541043
43.118749,21.077059,-10.154321,16.638949
43.152813,13.718667,-32.144951,-5.802555
43.185283,25.659276,-14.423485,5.956089
43.218618,33.018567,5.133651,-1.074137
43.251545,19.097433,-0.839497,-8.617788
43.285119,7.881395,-4.598378,-8.791224
43.318705,3.440591,-9.009852,-10.611181
43.351784,-0.303027,-15.241882,-10.915256
43.385155,-14.489029,-15.258343,-7.751954
43.418749,-13.708042,-9.939135,-7.922995
43.451756,-11.662124,-10.451512,-7.664412
43.485155,-4.484649,-9.205884,-15.647714
43.518747,29.896416,0.533776,-12.013336
43.553343,33.868090,-15.885497,-3.520051
43.585057,18.877009,-11.437360,8.339601
43.618429,14.385476,-4.926246,6.130123
43.651801,18.243121,-0.007632,12.397170
43.685060,10.217770,-11.855313,0.300932
43.718473,11.578174,-7.916860,-4.789023
43.751853,15.391974,-7.562655,-10.411258
43.785074,8.366537,-9.044569,-9.842316
43.818566,-6.339175,-8.296504,-10.374297
43.851891,-15.419509,-8.296055,-6.628434
43.885100,-12.935585,-9.374083,0.073774
43.918708,-4.885992,-19.104316,-16.026311
43.951976,11.198081,-15.745281,-7.046986
43.985497,29.690657,-15.510940,2.838876
44.018850,10.793746,-10.326112,17.762169
44.052289,32.460398,3.996963,11.537621
44.085457,34.128019,4.545554,-3.114219
44.118807,12.836073,-5.810935,-9.069111
44.153807,4.820448,-9.629224,-10.191732
44.184893,-4.275149,-17.405420,-14.011518
44.219075,-23.241794,-7.243168,-3.300226
44.252109,-16.435285,-3.232437,-7.132132
44.285155,-5.159689,-7.206355,7.680873
44.318895,10.888619,-17.979899,-7.773801
44.352139,35.102943,-14.769460,-3.147590
44.385346,28.567587,-18.041702,-4.726323
44.419558,20.878184,-4.743083,2.449056
44.451751,35.569380,19.247824,8.908095
44.485172,18.018657,-4.415814,-6.754134
44.518616,6.775384,-9.572360,-9.982082
44.551882,6.500639,-11.794408,-8.613598
44.585125,-15.268968,-9.437232,-6.846913
44.618662,-18.855760,-0.690602,-3.307259
44.651792,-7.953822,-5.622235,8.003354
44.685157,-2.836033,-5.224783,-4.992837
44.719364,16.217405,-14.386374,0.301680
44.751551,30.557539,-21.244360,-4.206014
44.785109,25.724670,-16.911299,-1.488798
44.818879,23.187923,-2.099790,-0.198726
44.852122,16.271127,6.542390,-9.174160
44.885102,14.732947,-4.644618,-13.726149
44.919056,1.178139,-7.216681,-5.884110
44.952033,-18.442446,-13.653123,-4.120119
44.985159,-21.519703,-8.819357,-1.928000
45.019103,-11.115777,-5.146371,-9.108317
45.051864,-0.698982,-4.050535,0.408825
45.085159,6.917245,-9.829746,-9.166528
45.120977,29.046295,-22.175139,-4.243126
45.152336,27.829847,-23.274416,-4.105005
45.185107,25.692198,-6.464276,3.895655
45.218988,21.529580,11.985053,-7.104748
45.251888,14.621912,-11.622917,-12.644979
45.285154,6.719417,-7.553377,-9.563681
45.319082,-11.241627,-10.601155,-8.925304
45.351744,-20.204940,-5.846700,-3.436700
45.385158,-14.053568,-3.236777,-3.371905
45.419095,-8.026399,-6.496150,-3.298131
45.451729,4.746824,-21.668448,-11.042901
45.485154,26.191556,-9.651072,1.098529
45.518703,21.379189,-17.230039,-1.913484
45.551947,25.933123,-9.561436,3.043139
45.585235,19.468697,8.616740,-1.939522
45.618830,13.423272,-6.134313,-9.037536
45.651836,5.509853,-8.172899,-8.031187
45.685369,2.937341,-9.007308,-13.457689
45.719400,-14.088734,-6.576059,-9.174759
45.751668,-19.068103,-3.589186,-3.979305
45.785242,-8.531743,-5.941723,2.690730
45.819054,-2.011052,-13.913951,-11.656288
45.851791,20.004119,-16.241348,2.150369
45.885970,23.962924,-24.397636,-2.713625
45.918702,23.518035,-10.798684,4.050386
45.951866,28.231040,7.502050,-0.080358
45.985131,17.617913,-0.094574,-8.843300
46.019047,11.024046,-4.987450,-10.676126
46.051958,2.076894,-8.821302,-9.443368
46.085258,-16.147821,-7.664113,-4.163965
46.118767,-17.551921,-5.460920,-3.977360
46.151946,-11.133585,-7.580313,-9.582386
46.185159,-1.238146,-10.718026,-6.182798
46.219134,16.140039,-12.358263,-7.663515
46.251545,28.422433,-16.546619,-5.037131
46.285328,22.166909,-14.459100,-1.786737
46.319102,28.104591,3.426524,3.773546
46.351818,20.390647,10.599509,1.796015
46.385112,8.610006,-4.784235,-6.718070
46.419049,8.085358,-6.119948,-10.099552
46.451849,1.771024,-12.752572,-12.152653
46.485511,-23.868349,-6.520093,-3.445828
46.519089,-17.351698,-1.362798,-4.525801
46.551888,-6.225446,-5.467804,4.556777
46.585152,9.849948,-16.974149,-9.206184
46.619808,28.094865,-14.150686,-4.257641
46.651534,23.422264,-18.045293,-3.470819
46.685113,28.217572,-7.541107,1.447047
46.718970,24.229138,6.834193,-2.099191
46.751641,15.888938,0.285668,-5.717857
46.785159,7.512675,-6.174567,-9.962928
46.819131,1.379109,-9.745198,-11.389624
46.852627,-12.939476,-6.838084,-6.514406
46.885118,-15.725079,-2.850100,-3.955961
46.918822,-8.964959,-5.081725,-8.642479
46.951915,-2.562037,-10.164497,-1.937577
46.985291,13.067570,-12.567913,-4.667962
47.021697,25.439151,-19.664280,-5.007951
47.051795,24.102989,-15.864996,-3.783722
47.085109,24.548177,-0.377250,3.443883
47.118821,18.321385,12.002412,-3.367415
47.151911,15.166163,-5.671318,-10.075011
47.185302,6.054254,-7.851017,-9.489607
47.218866,1.459468,-9.886461,-9.803708
47.251913,-11.998521,-3.854204,-3.588588
47.285284,-16.704193,-3.800033,-10.038797
47.319136,-10.749302,-3.257428,-0.158322
47.351653,0.622515,-8.445549,-12.329082
47.385163,13.649681,-6.839581,-2.496793
47.419704,10.676875,-25.228454,-11.024794
47.451941,21.372006,-26.167613,-5.480224
47.485181,24.766207,-11.034222,-0.856257
47.518825,17.309948,-1.670764,2.047864
47.552012,11.937168,3.135169,1.194600
47.585288,8.945506,4.038414,-2.816729
47.619080,6.359077,1.199688,-2.797725
47.651718,3.784769,1.138484,-1.277352
47.685392,1.934883,-0.470477,-1.227970
47.719070,1.156890,-4.801893,-3.296933
47.751823,3.831009,-15.011731,-5.558637
47.785271,10.049272,-22.465746,-7.470625
47.819087,8.064258,-16.048159,-3.474111
47.851624,4.916968,-7.136173,7.307963
47.885255,4.500811,-11.413417,4.013274
47.919165,7.980159,-11.713751,-3.053764
47.952491,9.649127,-9.566524,-4.540167
47.985407,9.480180,-4.402645,-2.941382
48.018839,7.250949,-5.328785,-1.999529
48.051809,6.589228,-7.012268,-0.589892
48.085495,6.450659,-9.039182,0.694343
48.118698,9.204238,-8.544014,-0.072577
48.152064,8.990698,-8.913632,-0.938261
48.185280,8.799305,-9.473596,-2.159797
48.218621,8.414273,-10.591129,-3.655777
48.252137,8.270167,-10.395995,-3.990977
48.285502,8.360701,-7.246310,-3.372503
48.318587,8.352171,-4.479113,-3.929773
48.352408,7.176576,-3.593077,-4.915322
48.385113,7.326070,-1.302791,-4.701931
48.418572,7.261424,-1.838064,-6.462480
48.452308,6.584140,-1.925007,-6.040338
48.485265,6.209135,-2.115802,-3.283615
48.518863,5.536939,-2.814485,-1.219291
48.552413,4.387382,-2.708687,0.151588
48.585267,3.294240,-1.616892,1.626170
48.619029,2.884966,-0.911774,0.582710
48.652310,2.512355,-3.644255,-0.803433
48.685189,2.870750,-4.845289,-1.262238
48.719016,7.279381,-13.218710,-3.772948
48.752064,10.551474,-18.500806,-4.663174
48.785155,11.926842,-18.053973,1.631707
48.819049,10.407368,-17.122296,6.251484
48.851936,8.944159,-17.386565,6.751590
48.885287,13.458587,-20.112760,2.800418
48.918847,9.686388,-21.277880,-0.653940
48.951855,11.352213,-12.500573,-3.729850
48.985740,13.849754,-21.576867,-11.317646
49.018679,10.814845,-16.873140,-11.178178
49.051843,0.165056,-13.084480,-10.960747
49.085656,-5.061523,-9.163386,-10.487277
49.118618,-6.360573,-7.794751,-7.357345
49.152107,-7.538114,-6.173819,-5.017678
49.185661,-5.519580,-6.893901,-2.219953
49.218531,-3.814548,-8.343941,0.102655
49.251975,-1.750224,-8.024753,1.654303
49.285364,-1.026102,-9.747143,-0.445936
49.318600,2.421522,-6.227242,0.352259
49.352374,4.491533,-3.958056,2.073602
49.385532,13.962136,-2.385608,1.696801
49.421324,26.733413,-14.508333,-3.298131
49.452417,31.497446,-22.645766,5.212064
49.485260,24.841926,-18.962006,4.072682
49.518596,17.430560,-19.698848,0.974026
49.552227,16.899328,-5.818866,-2.042776
49.585659,14.250647,-5.106117,-8.397214
49.618599,11.043201,-2.387104,-11.896165
49.652228,4.379600,-6.789600,-7.939007
49.685663,-9.886610,-10.667746,-9.352983
49.718613,-14.748360,-6.159304,-7.438302
49.752383,-11.000552,-2.892897,-8.925005
49.785452,-12.260995,-3.782824,-8.289471
49.818676,-6.679163,-3.702466,-8.118130
49.851869,21.203059,-16.384855,-8.341696
49.885502,36.788072,-24.056750,-8.050491
49.918560,18.607951,-17.475752,2.295672
49.951768,22.757849,-3.364273,1.615845
49.985270,21.217574,12.932892,-1.264184
50.018581,10.841931,-4.392769,-4.547948
50.052056,3.198468,-7.750008,-7.712747
50.084862,6.827459,-7.200070,-8.803495
50.118518,1.916178,-8.026548,-7.592285
50.151885,-10.243658,-7.034266,-8.268671
50.185583,-12.235855,-3.100901,-10.108082
50.218744,-9.626381,-2.889755,-0.209799
50.251860,-2.181345,-7.623560,-11.830173
50.285362,18.350116,-17.658167,-9.888406
50.318560,35.147088,-25.584155,-9.685789
50.351949,14.022741,-14.160562,9.671424
50.390678,27.231425,4.892127,10.035655
50.418571,27.315524,8.801699,-4.547051
50.451774,8.287975,-8.343791,-6.251633
50.485363,4.575932,-6.893901,-7.715441
50.518616,1.500919,-9.723499,-9.590916
50.552070,-14.388469,-7.551582,-6.317027
50.585447,-15.986506,-2.890503,-5.729230
50.618676,-11.209753,-3.596968,-7.943497
50.651820,-4.563960,-7.125548,-8.072788
50.685448,8.879513,-14.936611,-12.322199
50.720291,28.235529,-14.649296,-7.377846
50.751910,21.945437,-11.995379,-0.694493
50.785348,17.422479,-11.022550,2.196758
50.818228,20.737819,10.561799,5.663686
50.851816,17.206694,-5.423659,-4.656889
50.885363,7.338191,-3.406921,-5.649321
50.918525,6.705650,-6.899737,-10.021289
50.951887,0.844585,-3.960750,-11.481355
50.985657,-13.826260,-5.330880,-8.222281
51.018831,-13.378079,-2.213070,-5.793576
51.051824,-5.186924,-7.941402,0.261875
51.085608,7.282374,-19.953391,-13.671978
51.118837,27.245641,-20.094504,-5.961925
51.151889,16.417777,-16.304497,-0.181966
51.185664,12.207722,-4.308220,9.846955
51.218236,24.908667,9.619647,6.610776
51.251777,19.650513,-6.833296,-8.215398
51.285364,10.455553,-9.719309,-7.034266
51.318319,1.985612,-5.980780,-10.986486
51.352113,-6.275876,-3.868121,-12.354222
51.385441,-10.200561,-2.656013,-8.027297
51.418845,-12.505362,-7.589292,-5.417973
51.451563,-8.923807,-14.190641,2.217260
51.485370,5.438623,-19.949649,-10.792848
51.518732,30.673662,-21.230294,-0.796100
51.552307,22.792865,-16.081978,-0.821989
51.585669,20.039884,-4.676492,7.216232
51.619647,24.656070,11.491082,2.796078
51.651947,17.179609,-3.044336,-2.157851
51.685661,8.543864,-7.037409,-6.780920
51.718700,3.924087,-6.184294,-8.159132
51.752083,-8.056028,-7.017356,-7.014962
51.785705,-18.175333,-5.124972,-2.603039
51.818573,-14.106092,-4.738145,-4.863545
51.851939,-2.651823,-11.922502,-3.566740
51.885691,12.460918,-13.649083,-8.593097
51.919098,26.168960,-14.037406,-6.304158
51.951990,24.066925,-18.263323,-2.783508
51.985367,29.450630,-8.963164,1.061417
52.018520,22.767426,11.526996,-3.334194
52.052097,12.576442,-5.718904,-9.425111
52.085470,8.044206,-4.692354,-11.163813
52.118912,2.339518,-6.233377,-8.481313
52.152153,-11.281731,-4.759992,-4.595984
52.185150,-13.172021,-4.867286,-3.578561
52.218627,-11.076272,-7.715740,-10.119155
52.252072,-3.110179,-7.018553,-9.754326
52.285316,8.808283,-13.771940,-5.078133
52.318354,19.937528,-13.748595,-2.517593
52.352291,21.398044,-16.707485,-4.124309
52.385341,22.688864,-12.827992,0.691500
52.418491,21.254087,-3.759330,1.024605
52.452349,15.900162,4.750116,-8.185619
52.485318,12.221489,-6.180852,-8.405744
52.518487,5.710225,-6.079394,-7.967589
52.552092,-12.749579,-10.056006,-7.379043
52.585288,-17.318777,-5.277009,-3.849266
52.618603,-11.120416,-2.684594,-9.706590
52.652316,-2.154858,-5.139786,-8.952389
52.685322,10.627492,-17.241860,-8.555387
52.721081,27.753679,-18.581314,-7.415556
52.752323,19.954139,-14.430518,3.427422
52.785126,18.059060,-1.283488,5.108511
52.818635,19.595744,8.482361,-3.633181
52.852213,15.393770,-3.335990,-9.263198
52.885437,8.286329,-4.573238,-7.417801
52.918522,1.706528,-7.301977,-10.034757
52.952102,-17.299024,-7.822585,-5.995594
52.985434,-14.301676,-4.554383,-6.510965
53.018558,-6.814590,-4.790071,-8.495380
53.052363,5.784897,-18.119516,-6.783165
53.085221,19.426947,-16.433938,-6.436742
53.118721,28.444580,-13.086425,-8.061415
53.152107,23.359863,-10.188290,2.087519
53.185823,25.117868,1.948950,0.271752
53.219296,14.301975,1.407841,-9.938087
53.252030,10.325812,-5.277159,-12.131105
53.285154,4.896766,-7.085145,-10.860038
53.318982,-12.436676,-8.146113,-7.523598
53.352374,-20.019832,-4.722582,-1.767134
53.385165,-10.921840,-3.955362,-3.513018
53.418509,0.496366,-8.430285,0.066142
53.452124,9.760910,-13.722109,-7.180318
53.485046,24.522289,-17.317131,-3.418593
53.518516,25.028980,-16.680250,-2.274124
53.551788,24.924829,-5.839816,1.091346
53.585044,20.272429,10.650537,-0.832913
53.618431,14.005532,-2.238958,-10.960448
53.651832,7.410618,-5.097288,-9.035740
53.685074,1.780452,-6.396637,-8.860957
53.718516,-16.328440,-8.389283,-5.321752
53.752063,-16.708234,-5.512098,-3.906728
53.785153,-8.728224,-5.800460,-4.350869
53.818727,6.544185,-20.090613,-10.485781
53.851863,28.002086,-18.435263,0.527042
53.885208,22.859905,-14.938107,-3.280323
53.918911,20.261805,-10.483237,3.911218
53.952383,26.430087,10.043885,-0.899953
53.985203,15.290217,1.429240,-8.455724
54.018514,4.707767,-6.403671,-9.603186
54.051937,1.463658,-6.464725,-9.206333
54.085151,-7.574178,-6.552565,-6.529221
54.118610,-13.933853,-4.446491,-3.558809
54.152163,-9.486764,-6.266298,-9.781561
54.185284,-1.959724,-10.152975,-4.979369
54.218792,12.612656,-12.769631,0.090085
54.252485,23.819715,-14.634781,-5.201439
54.285297,26.437270,-19.351527,-1.608362
54.318437,29.698738,-1.347684,0.226110
54.352129,20.227686,7.610541,-6.242206
54.385251,11.778247,-5.069304,-11.078516
54.418663,4.043652,-5.128862,-10.592626
54.451950,-1.195049,-8.477123,-8.553591
54.484851,-16.640595,-6.201204,2.773333
54.518508,-15.678840,-10.027275,12.678499
54.552085,-11.003396,5.188570,-7.412563
54.586402,-8.462458,-12.693912,-7.560710
54.618506,28.767510,-17.669839,-12.083818
54.652433,30.660343,-19.928400,-9.159944
54.685136,19.519276,-13.928915,-3.190088
54.718560,11.166057,-0.940955,0.510731
54.751939,7.933171,3.938453,1.989353
54.785183,8.302041,3.938752,-0.404934
54.818619,5.995295,1.721343,-2.366753
54.852141,3.890118,1.933686,-1.070097
54.885155,2.707340,0.791312,-0.316794
54.918802,4.159924,-6.669586,-3.319978
54.952074,6.717023,-12.548309,-5.508357
54.985155,9.086320,-17.071866,-6.370749
55.018486,9.291331,-20.214368,-3.572875
55.052117,6.190729,-13.825213,0.189149
55.085287,4.219632,-8.292314,1.377314
55.118693,3.453610,-3.319529,1.793920
55.152430,3.849714,-1.883556,1.860361
55.185185,5.027704,-5.506412,0.795352
55.218615,9.458482,-15.647415,-2.707639
55.252325,10.411857,-12.010193,-0.953674
55.285185,10.135017,-9.473895,-0.073026
55.319978,7.176277,-8.179783,-2.470605
55.351990,8.639187,-5.283892,-3.193231
55.385238,9.583733,-4.668710,-4.963956
55.419316,10.602053,-3.887724,-5.666230
55.451856,10.505982,-4.491982,-6.021183
55.485662,8.360103,-3.951472,-4.516224
55.518726,8.742291,-3.368313,-6.447366
55.551553,8.073237,-4.289515,-7.227305
55.585676,6.215420,-3.713390,-4.836011
55.618267,4.634292,-3.348411,-1.065757
55.651822,4.142715,-2.480481,-2.463273
55.685123,-1.693509,-4.103808,2.674269
55.718390,0.414511,-1.106460,1.762046
55.751749,4.294154,-2.695369,-1.985912
55.784936,4.657786,-9.315573,-6.027917
55.818412,8.308027,-15.067698,-2.092457
55.851711,7.233141,-17.388061,2.292231
55.885122,11.180423,-18.524749,3.228247
55.918570,12.920771,-25.607649,4.190751
55.951762,9.116398,-28.929274,6.873699
55.985193,14.533622,-29.727170,1.411283
56.018662,12.846697,-24.858088,-4.545554
56.051784,7.651244,-21.413307,-6.879236
56.085090,1.186818,-17.302316,-8.354715
56.118195,-4.733057,-14.327265,-8.018468
56.151554,-4.691606,-10.421135,-7.941402
56.185363,-3.956859,-7.433813,-5.766940
56.218749,-3.379536,-4.930585,0.258433
56.251852,-2.357625,-7.536917,0.047138
56.285664,-0.439052,-8.066653,0.592885
56.318404,1.572149,-4.463550,-1.740198
56.352095,2.276668,-2.958142,-0.761683
56.385653,3.934861,0.332956,1.105412
56.418276,2.761511,2.249732,-1.066655
56.451885,8.005299,-4.445593,-0.987195
56.485203,18.871622,-8.825342,-2.443220
56.518459,21.400887,-11.871624,-4.138226
56.552102,20.378376,-17.974961,4.105305
56.585092,17.810952,-23.549610,5.430243
56.618209,9.203939,-17.012458,7.637327
56.651868,9.476140,-8.003204,7.403734
56.685137,10.643654,-6.326754,-0.218179
56.718535,16.683842,2.212770,-7.304222
56.752124,14.983748,-1.246077,-9.375280
56.785121,4.970839,-11.515773,-7.131085
56.818907,-22.767875,-14.884834,-9.518788
56.852697,-21.084691,-8.863052,-10.067379
56.885108,-12.072445,-7.092776,-12.343897
56.918613,1.195198,-3.229744,-10.464082
56.952240,16.963375,-1.043760,-3.015904
56.985496,18.747418,-0.389670,-4.009084
57.018717,9.671573,-7.180168,-3.187095
57.052039,14.530480,-13.368652,-2.748492
57.085281,21.909074,-21.798338,-1.675552
57.118247,12.915234,-19.415274,7.069881
57.152525,7.863886,-13.019385,8.765036
57.185542,15.087750,-2.326349,2.558445
57.218638,12.921818,-2.847256,-4.282033
57.252033,13.534905,-3.125892,-3.202808
57.285538,11.321536,-12.410787,-11.022101
57.319081,-0.775300,-16.878228,-10.257126
57.352635,-21.273840,-12.308881,-6.632026
57.385422,-12.035633,-4.672302,-9.935843
57.418623,-6.268543,-3.923039,-9.988517
57.452120,-0.820343,-8.841205,-14.039501
57.485764,18.305223,-4.822843,-14.099358
57.518204,23.092451,-5.755268,-5.912243
57.551946,18.492127,-8.540722,1.654003
57.585158,7.626403,1.047501,7.357195
57.618558,2.035144,-3.266556,-0.733699
57.652028,7.253044,0.098465,-0.873616
57.685307,5.974345,-0.250353,-3.166145
57.718685,4.222774,2.919235,1.301744
57.752388,1.071743,1.923361,1.244431
57.785210,1.356513,-2.459232,1.541173
57.818675,3.804672,-10.263561,-0.664265
57.852055,7.778590,-35.206346,-4.242228
57.885307,6.584888,-35.233581,3.735387
57.918530,10.307107,-28.782773,3.784171
57.951955,9.764950,-16.151861,1.658493
57.985278,8.296055,-2.343409,1.577686
58.018601,7.892169,0.187802,0.466138
58.052371,6.219759,1.273162,-1.000064
58.085137,0.960109,2.150220,0.471675
58.118763,0.423340,3.037453,0.272500
58.153424,1.754414,2.225490,-0.971632
58.185136,2.431399,-8.669115,-3.009619
58.219516,7.313051,-28.599610,-8.861107
58.252398,8.568405,-23.194507,-4.904847
58.285133,7.823184,-13.260161,9.119989
58.318718,3.719675,-10.806765,6.830452
58.352429,3.511970,-12.646325,-2.066719
58.385183,2.095301,-9.874938,0.446086
58.418668,0.658429,-5.544870,2.663794
58.452331,2.092607,-3.072170,2.480332
58.485182,3.734789,-3.272841,0.095921
58.518610,6.256871,-6.270488,-1.347834
58.552432,6.945827,-9.110113,-1.747530
58.585182,4.872374,-6.197313,0.072726
58.618623,3.679271,-6.399181,-0.555175
58.651952,3.724314,-8.894627,-2.781114
58.685148,6.451856,-19.060172,-3.612081
58.718559,5.216403,-18.115925,-0.967891
58.752420,2.996001,-10.968529,3.063041
58.785189,2.093954,-6.626489,2.821368
58.818648,2.383513,-7.417202,-0.807174
58.852328,2.341164,-8.927549,-3.036704
58.885180,4.388429,-10.420387,-2.162191
58.918607,4.677240,-7.306317,-0.825580
58.952443,5.606373,-7.165054,0.253495
58.984896,2.776026,-12.775318,3.595621
59.018575,4.028837,-12.417671,4.337700
59.052342,5.103124,-11.072979,3.553272
59.085323,4.884795,-10.860187,3.388066
59.118610,3.649492,-10.155818,1.553144
59.152472,5.587817,-8.476225,-3.316836
59.185443,12.499077,-4.299092,-6.188185
59.218658,12.375172,-5.063618,-6.994461
59.252199,12.238548,-3.686304,-5.063468
59.285455,10.791202,-4.902153,-5.788937
59.318614,10.380881,-5.410490,-5.713966
59.352422,9.088714,-5.302598,-5.283144
59.385450,8.560025,-5.059877,-4.421650
59.418658,7.474516,-4.462353,-2.736072
59.452328,5.636002,-3.560604,-3.041493
59.485425,-4.279040,-5.356619,8.802746
59.518665,-6.157508,-8.278098,1.176792
59.552435,7.172686,-10.407667,-4.657337
59.585417,12.066160,-6.766704,-5.630316
59.618618,9.061030,-13.059789,-4.739940
59.652320,3.948479,-9.493797,-1.019517
59.685391,7.891122,-8.090596,-3.128735
59.718606,9.979090,-7.669650,-5.010644
59.752623,7.132282,-8.185469,-4.151694
59.785030,6.295778,-8.690514,-3.241715
59.818625,6.632325,-8.790476,-3.562550
59.852323,6.175615,-8.392874,-2.788746
59.885300,5.470497,-7.107292,-1.770725
59.918338,5.893538,-7.797295,-1.817713
59.952426,6.341120,-7.535121,-1.881311
59.985279,6.396637,-8.282288,-1.501817
60.018468,6.183097,-9.474494,-1.337359
60.051836,7.899352,-9.841268,-0.786523
60.085103,8.149854,-8.809929,1.847791
60.118573,7.242270,-6.816236,2.761661
60.151614,6.192524,-7.770659,1.854525
60.185560,7.677282,-8.142671,1.303989
60.219738,7.894563,-9.071804,2.261404
