time_tick,acc_X_value,acc_Y_value,acc_Z_value
0.030842,5.629119,0.085895,-8.562120
0.063791,5.261745,-0.026786,-8.397513
0.097566,5.243339,-0.087840,-8.341247
0.130352,5.303346,-0.087990,-8.205372
0.163636,5.189318,-0.039955,-8.152248
0.197646,5.224035,-0.158023,-8.202229
0.230446,5.290028,0.034867,-8.108253
0.263646,5.254413,0.050280,-8.233654
0.297160,5.274914,0.198127,-8.087603
0.330203,5.349286,0.215635,-8.233205
0.364031,5.284491,0.137223,-8.094786
0.397453,5.480074,-0.073325,-8.169158
0.430188,5.365298,0.059558,-8.057076
0.463762,5.332526,0.027834,-8.031636
0.497319,5.393581,-0.175531,-8.053185
0.530185,5.221342,0.014515,-7.673092
0.564039,4.900657,0.015413,-7.172835
0.597282,4.291760,-0.276241,-5.940675
0.630206,3.420838,-1.024456,-4.486894
0.664008,3.233934,-3.273888,-2.965923
0.697083,3.797339,-4.557226,-3.470220
0.730191,4.459809,-4.970540,-5.138140
0.764015,4.157380,-6.351894,-6.205843
0.797375,4.828978,-7.132581,-7.112978
0.830499,4.171447,-7.637028,-7.374853
0.864008,3.099704,-8.585614,-6.816835
0.896778,3.160459,-9.187179,-6.076551
0.930188,2.260207,-10.500895,-5.695560
0.964016,3.386270,-14.534221,-5.117041
0.997052,4.757299,-18.266316,-4.586407
1.030322,7.138717,-17.195321,-4.591495
1.064027,7.519558,-13.039587,-4.200328
1.097108,8.772967,-14.254389,-9.496491
1.130185,7.065990,-12.380111,-10.175271
1.164021,3.150583,-11.580868,-14.744619
1.197173,2.392192,-9.161291,-16.887207
1.230184,-1.623327,-2.877784,-17.841031
1.264015,-3.356791,-1.518128,-16.943173
1.297046,-1.184873,-0.455962,-13.855740
1.330234,0.820193,-0.153384,-10.953415
1.364098,1.153897,-3.012911,-11.113682
1.396786,0.944696,-4.452925,-7.862989
1.430251,0.478409,-2.950660,-2.250181
1.463970,0.795203,-6.480138,-0.255740
1.496954,4.756551,-4.599725,-1.794967
1.530186,4.905146,-4.907690,0.291056
1.564032,0.229103,-1.547607,3.296185
1.597112,3.498054,-1.310124,-0.472423
1.630316,9.646583,-4.695197,-3.427272
1.664056,15.982166,-3.219718,4.615437
1.697008,12.580931,-2.506220,-3.970476
1.730401,20.869804,-3.537559,5.680596
1.764156,18.776449,-13.061734,-8.149256
1.797034,26.119578,-22.506299,-3.359484
1.830318,6.843172,-17.729846,-2.167428
1.864019,6.377184,-21.067482,-0.221920
1.896988,8.263583,-8.932487,2.130616
1.930316,11.438408,-7.491276,-9.874788
1.968502,24.071115,-11.642521,-9.084823
1.997193,11.939412,-5.813329,-9.090959
2.030320,0.238980,-2.892299,-10.289898
2.064394,0.748813,-1.463508,-11.297594
2.097316,-7.802982,-6.253429,-13.759070
2.130320,-8.166913,-4.516224,-7.096069
2.164018,-10.806166,-3.082495,-10.861684
2.197338,1.386592,-6.029264,-8.645023
2.230312,4.065200,-3.457800,-10.209240
2.264025,4.239983,-0.871221,-8.637690
2.297150,13.409953,-0.494570,-4.742035
2.330321,18.751309,-6.497048,-1.757856
2.364037,16.505767,-25.193887,7.370364
2.397005,10.381031,-22.542363,6.014150
2.430214,21.235531,-25.005187,13.297422
2.463635,20.076098,-13.199555,1.498524
2.496984,29.910183,-9.194961,-9.882271
2.530207,20.306249,-11.044398,-11.335154
2.563527,3.697528,-5.041471,-12.617444
2.596980,-6.000981,-7.854609,-14.055363
2.630323,-12.897277,-8.211507,-11.051281
2.664141,-19.875427,-10.895054,-6.072810
2.697104,-17.909418,-5.806296,-1.234255
2.730485,-1.215550,-3.391807,-6.227092
2.764025,8.938472,-2.814185,-8.030289
2.796656,12.300501,-3.664456,-6.289194
2.830529,12.131554,-8.681236,-8.207018
2.864018,21.669496,-16.376924,0.776797
2.896833,13.083432,-13.525627,4.104556
2.933104,17.404971,-22.054976,10.226898
2.963559,19.838016,-15.482658,1.314015
2.997125,24.451209,-5.086364,-5.961925
3.030928,18.275893,-3.079951,-6.752488
3.063537,4.722582,-5.237204,-12.046706
3.097322,-5.324895,-4.652998,-18.327520
3.130331,-8.572895,-9.509211,-13.504977
3.163659,-14.695087,-10.313691,-8.745732
3.196799,-11.931182,-2.811043,-3.504339
3.230523,0.539912,-1.850634,0.556522
3.263437,11.704922,-3.485484,-2.288490
3.297094,21.282968,-12.466305,-3.393303
3.330323,22.038815,-19.255905,2.389648
3.363678,15.499119,-17.955208,0.237932
3.397051,21.620413,-19.164922,1.676001
3.430447,19.370531,-0.904741,-0.177776
3.463936,14.921198,-0.134679,-6.067273
3.496626,18.833014,-4.746225,-10.780577
3.530721,1.558531,-3.320876,-8.230063
3.563952,-10.313691,-3.256231,-10.007821
3.597132,-11.000103,-8.144168,-13.476993
3.630378,-14.206503,-8.204324,-10.174823
3.665129,-12.111202,0.799842,-2.537944
3.696816,-0.715892,1.851682,-5.658149
3.730196,17.907771,-8.491040,-2.898734
3.765123,18.525946,-9.803409,-4.784684
3.797929,19.833078,-17.257423,-2.764504
3.830930,16.027807,-21.567290,1.610308
3.864039,16.649723,-19.680891,6.161548
3.897406,23.610664,-5.629418,-0.250802
3.930049,20.292033,-0.264569,-4.417161
3.963872,18.616032,-3.166445,-7.851316
3.997180,3.857496,-4.378702,-14.308859
4.030705,-4.544806,-6.465772,-11.762983
4.064167,-13.796481,-5.653511,-10.835795
4.096597,-12.934089,-6.903628,-11.607504
4.130703,-10.894007,-1.790029,-3.398541
4.164122,-2.565479,2.219803,-2.124930
4.197014,11.295349,-7.283870,-5.251570
4.230221,18.326173,-8.016373,-4.315403
4.263481,19.024407,-17.811401,-2.741309
4.296819,21.206351,-16.109213,1.559130
4.330389,17.234229,-15.504206,-0.215187
4.363856,16.689678,-13.855590,2.823463
4.397181,13.205391,-1.661635,-2.829000
4.430657,16.998990,-6.202551,-11.442149
4.463844,18.236836,-1.317307,-9.700604
4.496594,-1.664478,-1.299050,-13.216166
4.530715,-4.922056,-3.068429,-17.210435
4.563552,-10.187243,-7.576273,-16.979087
4.596989,-16.878677,-7.029328,-9.432145
4.630680,-6.336032,-1.871285,-4.739940
4.663782,3.699623,-5.820662,-5.694064
4.697084,20.536250,-11.074476,-3.743468
4.730544,20.236066,-17.044182,0.269657
4.763597,17.495804,-19.633304,-1.269271
4.796576,20.071010,-15.862302,-0.495318
4.830429,19.573597,-3.378040,2.275920
4.863795,16.164431,1.668968,-2.620996
4.896644,17.479942,-5.590212,-10.968828
4.930680,13.392894,-2.836482,-14.346569
4.963555,-3.746760,-0.954273,-13.528171
4.996862,-11.185960,-3.066034,-11.738591
5.030822,-10.479795,-9.146327,-9.207231
5.066547,-8.844048,-1.784193,-3.699473
5.096818,0.470627,-2.496194,-6.355037
5.130402,14.323973,-8.288424,-2.153811
5.164088,18.568894,-14.705263,-0.230749
5.197366,23.537638,-18.119217,0.624161
5.230439,20.850650,-17.765760,-0.803583
5.263519,15.498520,-15.103912,1.614498
5.297266,14.716336,-3.571528,-2.757920
5.330700,15.616439,-0.742678,-5.627622
5.363526,14.524195,-4.633694,-9.448905
5.396651,3.588887,-3.523642,-16.191816
5.430732,-3.897750,-3.565842,-17.040441
5.463723,-12.474086,-4.126404,-13.705349
5.496585,-15.347680,-6.939392,-9.891997
5.530791,-5.120183,-2.515797,-4.190751
5.563550,-0.093676,0.547544,-4.109944
5.596805,15.882653,-17.863477,-1.464556
5.630691,19.135143,-18.434964,-3.026678
5.663332,23.858473,-18.245815,0.987344
5.696577,15.705626,-16.886009,-3.786415
5.735126,22.434321,-9.229977,1.621531
5.763245,20.029708,-1.755162,-1.650711
5.796834,12.487554,-4.177881,-7.119263
5.830209,12.399714,-5.828293,-14.405678
5.863643,-1.011287,-3.491020,-14.246308
5.896909,-12.186922,-2.357625,-12.255907
5.930350,-13.994908,-5.356320,-11.005790
5.963685,-12.939027,-2.412544,-7.375003
5.996957,-3.868569,-1.157039,-3.252639
6.030767,2.302706,-7.058209,-5.573751
6.063794,19.375918,-16.967565,-1.105113
6.097156,19.733116,-23.552752,1.043161
6.130338,25.136274,-22.377008,-1.852280
6.163802,24.800625,-15.282885,-1.299200
6.196559,19.432783,-4.926994,0.074672
6.230211,16.151861,4.085103,-3.251741
6.263456,12.000466,-3.171682,-10.794045
6.296561,7.971330,-5.243040,-14.350160
6.330272,-8.241436,-3.156119,-10.015453
6.363479,-12.806144,-4.403393,-13.498841
6.396604,-5.614304,-4.554383,-10.572424
6.430713,-9.660500,-4.762686,-5.578689
6.463908,1.038073,-0.883791,-2.394736
6.497368,12.041918,-10.082044,-1.548056
6.530682,18.451574,-13.747099,2.171319
6.563288,19.787885,-17.663255,-1.284834
6.597198,22.835214,-19.832329,-1.030441
6.630744,16.239552,-16.027508,-1.118581
6.663438,18.017310,-2.924622,-1.748877
6.697253,16.829295,1.458869,-3.634977
6.730348,14.881841,-5.921820,-10.542944
6.764008,3.497006,-3.326712,-14.497259
6.797487,-7.743424,0.285668,-12.724738
6.830161,-12.785793,-6.538798,-13.053953
6.863713,-10.922888,-8.965109,-12.311425
6.896663,-5.455383,-4.064153,-1.630809
6.930215,2.669481,0.517465,-1.110500
6.964046,20.091212,-14.791008,0.513126
6.998175,19.231513,-15.260588,-0.525995
7.030187,21.553074,-23.057733,-0.156527
7.063901,22.836711,-16.493346,-1.223032
7.097156,23.836326,-6.915449,-0.642118
7.130188,13.475796,-2.734725,-6.008164
7.163878,11.684421,-6.661655,-11.808624
7.197145,4.508293,-4.660330,-18.067141
7.230769,-6.147332,0.482898,-13.798426
7.263223,-17.253383,-4.199430,-10.994267
7.296622,-11.122960,-7.468679,-5.343450
7.330667,-9.827651,-4.611547,-4.680233
7.363740,-1.536683,-2.356427,-4.394115
7.397096,9.976695,-13.604040,-2.647333
7.431057,21.772600,-12.338660,0.324426
7.463764,22.048841,-20.788398,5.401063
7.496794,26.098179,-19.643480,2.086023
7.530234,20.720311,-11.956920,-0.669054
7.563625,16.904415,-6.083435,-4.347726
7.596616,14.398495,-3.999507,-6.627088
7.630481,9.642094,-6.364015,-11.299090
7.663425,0.824383,-3.102697,-15.229013
7.696617,-9.867905,-4.599575,-12.136492
7.730459,-17.884427,-6.651928,-5.749731
7.763861,-15.614643,-9.884814,-8.705179
7.797176,-4.763883,-5.370087,-5.801358
7.830350,1.972144,-4.103808,-6.241607
7.863513,18.066243,-13.426564,1.081769
7.898692,20.966473,-18.999566,-0.669652
7.930641,26.459417,-20.886414,1.544465
7.963572,20.337374,-12.435927,2.814335
7.996589,20.746199,-4.177881,-0.424088
8.030570,16.074047,-4.661228,-3.574671
8.063791,11.716594,-6.413996,-9.299262
8.096827,4.370023,-5.627922,-13.249686
8.130388,-2.655863,-3.259822,-11.227411
8.163636,-14.792804,-7.413012,-14.254239
8.196693,-14.922544,-8.829832,-13.484925
8.230675,-9.535847,-3.450317,-5.763498
8.263219,-2.785454,0.545000,-5.395077
8.296607,10.827415,-9.243295,-1.740796
8.330738,23.610664,-16.783504,-1.904356
8.364317,26.446099,-22.999073,3.517507
8.396922,23.034539,-18.503201,0.874513
8.430786,22.233949,-8.551047,1.845098
8.463554,14.525392,1.561225,-1.834922
8.496919,9.705093,-8.233654,-6.530418
8.530683,10.792399,-5.803453,-12.267579
8.563578,-1.867394,-3.705309,-12.901467
8.596660,-14.738783,-6.852899,-11.726620
8.630711,-13.555706,-6.701460,-7.975819
8.663595,-12.371880,-5.674461,-7.867029
8.696699,-4.579523,-1.833276,-3.331950
8.730700,1.812775,-3.701418,-4.227713
8.763590,18.573832,-14.767365,1.028346
8.796605,22.524406,-19.580929,0.828274
8.830450,26.354517,-19.994542,1.405447
8.864404,21.420789,-15.860955,-0.108790
8.896866,21.352103,-6.044528,0.622664
8.930401,11.279038,-3.134272,-3.419192
8.963621,10.704708,-6.528473,-11.438258
8.997162,5.372032,-7.080805,-13.810248
9.030346,-3.398840,-2.007909,-12.828890
9.063512,-12.365146,-6.171425,-16.257359
9.096614,-11.014469,-8.480266,-10.700518
9.130936,-7.276388,-5.537986,-5.218050
9.163959,-0.861046,1.011137,-3.711145
9.196599,12.197995,-14.429172,-0.574779
9.230483,22.647712,-15.347381,1.457822
9.263893,22.479812,-21.526736,4.199879
9.297154,23.148567,-20.010704,2.568172
9.330629,19.519576,-5.849842,2.987771
9.363484,12.241092,0.396404,-1.556137
9.397119,9.991211,-6.862177,-9.701203
9.430967,6.796633,-7.830366,-14.190491
9.463203,-5.060625,-0.984950,-13.116953
9.496853,-12.385348,-3.275086,-13.434495
9.530952,-10.194875,-7.970881,-9.721853
9.563551,-12.680893,-6.770445,-7.554874
9.597181,-4.292957,-2.801466,-4.213646
9.630861,6.684850,-8.107056,-3.091324
9.663528,21.124197,-15.483256,1.436872
9.696841,22.114684,-22.631251,0.858651
9.729995,26.989901,-24.490265,1.473384
9.763792,19.696154,-11.536424,2.644789
9.796827,17.138906,-1.788084,-0.430672
9.830424,11.933426,-5.622385,-6.248790
9.863518,9.032598,-9.041427,-12.038027
9.896652,0.690602,-4.718392,-14.735790
9.930786,-10.327608,-2.140942,-12.638245
9.963289,-13.806058,-6.686945,-15.472482
9.996818,-13.113660,-6.402623,-15.667467
10.030746,-4.836460,-1.783295,-3.751998
10.063949,0.358395,0.030527,-3.524540
10.096836,19.401807,-15.227966,2.027063
10.130934,22.134436,-23.915188,1.463658
10.164727,24.057648,-22.631999,2.122386
10.196765,22.755006,-15.878463,1.369383
10.230319,17.457645,-4.840051,-3.049574
10.263278,12.131703,-0.873316,-4.411773
10.296803,6.889412,-6.551667,-7.779638
10.330392,2.072106,-5.822607,-14.441592
10.363593,-3.583949,-2.715271,-11.843790
10.396874,-15.012779,-5.453139,-14.342828
10.430694,-14.603655,-8.649362,-14.811060
10.463873,-7.209947,-4.178929,-8.535334
10.497094,-1.123819,0.248557,-1.348283
10.530691,19.216399,-12.662637,3.561203
10.564239,21.849816,-16.426157,2.813437
10.596915,23.506363,-21.585995,2.115802
10.630585,24.159554,-15.919466,1.688870
10.664021,19.545613,-9.677260,1.208666
10.696817,16.544823,-3.614027,-3.778484
10.730709,7.038905,-9.366601,-6.830303
10.763567,4.334707,-4.943455,-13.573513
10.796634,-3.079053,-2.679806,-15.763089
10.830395,-11.896764,-4.574585,-14.921796
10.863916,-14.279977,-5.505963,-6.749346
10.897317,-13.030309,-7.443091,-9.988667
10.930457,0.415409,-2.439629,-4.757299
10.963643,10.294836,-7.763476,-4.615437
10.998747,20.804560,-15.674500,5.970155
11.030297,22.991891,-19.530799,5.795821
11.063593,27.517542,-22.661030,3.369361
11.097948,20.745151,-12.889795,2.880627
11.130183,15.662229,0.971482,-0.404485
11.163717,10.699770,-6.802469,-7.951577
11.197721,8.975434,-7.655733,-14.938257
11.230165,-7.813307,-5.070352,-11.050234
11.264004,-15.998926,-3.749005,-10.602652
11.297118,-12.108958,-5.780258,-6.396637
11.330220,-8.928297,-5.537537,-6.813692
11.364011,-2.082431,-2.180597,-1.395271
11.397140,6.723158,-4.956773,-2.422719
11.430361,20.607031,-15.630804,0.657830
11.463814,24.010510,-16.416579,1.736906
11.497593,26.096533,-21.269500,2.205887
11.530287,24.452106,-13.713579,1.248022
11.563726,20.216014,-3.441788,-3.779532
11.596722,15.314908,-2.075697,-5.482469
11.630320,4.800246,-4.806681,-14.424682
11.664007,-3.429816,-4.765080,-13.507371
11.696590,-18.291905,-9.367499,-12.010343
11.730189,-15.016969,-4.353113,-1.015028
11.764013,-11.975626,-7.085444,-6.648486
11.797090,-2.038436,-1.373722,-0.218628
11.830319,5.759308,-2.221300,-0.827376
11.864167,21.767213,-14.432015,4.981165
11.897470,25.305670,-13.741263,0.712450
11.930822,26.675202,-24.369653,2.329492
11.963719,21.596919,-20.617506,3.199815
11.997179,20.523381,-7.978812,-2.785603
12.030318,12.379662,-3.609687,-7.264417
12.064168,7.674139,-7.056114,-14.912369
12.096667,0.413015,-4.833766,-15.598182
12.130316,-11.760439,-4.940163,-9.938237
12.164008,-19.123022,-7.985696,-3.096262
12.197076,-16.436332,-6.517699,-7.081553
12.230308,-4.641775,-3.676877,0.826179
12.264013,2.395035,-0.638676,-0.080508
12.296612,19.631060,-10.678072,2.630124
12.330331,26.859712,-19.509101,-1.138633
12.364205,26.694805,-16.812984,2.066719
12.397074,19.580480,-17.657718,-0.269208
12.430260,19.035481,-6.333638,-1.074885
12.464034,15.909440,-3.082645,-5.957884
12.496615,10.979453,-3.389113,-10.486379
12.530317,-3.007075,-6.504979,-14.757488
12.563734,-17.885774,-7.541107,-11.307919
12.596667,-21.075114,-6.069518,-11.446039
12.630313,-13.747548,-3.877997,-5.187971
12.664039,-4.814313,0.377100,1.010988
12.696567,7.667256,-4.563212,0.367822
12.730359,24.176015,-12.861213,0.349865
12.764481,24.541294,-21.536463,-0.117769
12.796666,26.367985,-18.974726,-1.287528
12.830155,21.993174,-13.537449,-0.051776
12.863652,17.369206,-0.745222,-2.667535
12.896588,13.968271,2.752832,-7.681771
12.930193,6.963934,-9.608723,-13.419830
12.964016,-3.937555,-3.693487,-12.785643
12.997688,-19.538431,-8.568106,-11.194490
13.030316,-13.805160,-7.149491,-4.847085
13.064017,-12.708128,-5.606074,-9.009254
13.096644,-3.533519,-0.755697,-2.083928
13.130311,8.413974,-9.025116,-0.211745
13.168383,24.498047,-14.991230,2.991961
13.197780,26.151302,-24.778029,3.540253
13.230148,23.036484,-19.522120,2.395933
13.263685,23.077486,-12.941721,0.529437
13.296929,14.585399,0.385031,-3.994868
13.330211,10.091471,-11.488837,-8.823996
13.364020,5.065264,-7.024689,-13.877737
13.396651,-3.973020,-2.037089,-13.671679
13.430317,-15.045102,-7.908779,-12.418270
13.464014,-15.657291,-8.505555,-3.609837
13.497325,-12.221788,-3.440740,-6.298322
13.530381,-2.522082,-1.261939,-3.907477
13.564018,8.519472,-6.214821,-0.579567
13.597302,22.332264,-10.673732,3.418892
13.630216,25.407876,-20.731683,7.285816
13.663751,26.198589,-21.819737,3.666402
13.696876,21.666204,-17.967180,1.627517
13.730279,17.091918,-7.016458,-4.838705
13.763743,10.065434,-5.061523,-9.704345
13.797088,3.650390,-7.586149,-18.846332
13.831695,-8.600429,-4.377655,-13.505875
13.863255,-20.892699,-4.690857,-11.633093
13.896568,-10.578709,-7.644510,-12.445654
13.930799,-9.115051,-2.795031,-5.102824
13.963820,-0.983005,0.728163,0.139168
13.997167,17.047324,-10.327608,1.941168
14.030903,20.942530,-9.656310,2.402069
14.063602,21.611883,-24.399881,2.217559
14.097294,24.222405,-24.206243,2.918786
14.130367,24.025474,-14.985993,0.042050
14.163624,16.720804,-4.443947,-3.937555
14.197488,9.904268,-8.212255,-5.089506
14.230358,2.523579,-7.508036,-16.114750
14.263549,-0.555475,-3.582751,-14.219372
14.296844,-17.346461,-9.222196,-16.084073
14.330451,-16.426606,-5.181237,-8.516928
14.363819,-12.208021,-3.586792,-6.961390
14.397285,-2.050857,0.870772,-1.380755
14.430489,8.147759,-11.231900,-0.116123
14.463688,22.538772,-12.416773,1.818611
14.497032,29.729714,-24.107030,2.016289
14.530529,27.893595,-21.361082,3.377441
14.563306,26.975535,-11.881650,0.493971
14.597114,11.327971,-3.345717,-2.052054
14.630148,3.936358,-6.462480,-13.798127
14.663287,3.862284,-5.019773,-13.320617
14.697091,-12.974343,-6.156012,-10.520797
14.730414,-15.271661,-5.100580,-10.208642
14.764382,-11.804883,-6.645943,-2.761212
14.797126,-11.455018,-3.736884,-5.215057
14.830388,-3.472165,-0.585553,-2.534503
14.864219,7.803880,-5.352878,1.475779
14.896575,25.599569,-10.233782,2.182692
14.930543,24.424273,-17.659963,4.115331
14.964465,24.639310,-21.504889,1.151203
14.996686,23.504717,-12.487554,-1.021313
15.030156,18.151989,-2.964876,-5.100281
15.063725,12.729826,-6.280215,-9.282651
15.096942,-0.613237,-5.812431,-13.582941
15.130262,-10.528130,-5.069005,-12.184677
15.164025,-18.315399,-10.563894,-8.856019
15.196720,-9.916240,-5.160587,-5.797467
15.230345,-9.957840,-2.704946,-1.696801
15.264128,-1.124716,-1.905853,1.228868
15.296796,20.573212,-11.992086,4.597929
15.330240,22.493131,-9.605730,0.836654
15.364162,27.147924,-21.648396,1.759053
15.396619,21.903687,-17.535759,-1.160631
15.432499,22.337053,-13.175014,-3.500897
15.464008,19.989155,-6.864721,-5.947559
15.497025,2.257813,-4.063405,-3.909871
15.530395,-2.549168,-6.547328,-16.377523
15.563582,-1.079225,-3.457051,-13.844367
15.597013,-17.700965,-7.097415,-11.290860
15.630306,-12.070948,-3.141155,-8.893430
15.663995,-7.331457,-3.221813,-4.933429
15.696811,2.087369,-0.312754,-0.021549
15.730093,16.642989,-12.585870,4.715249
15.763520,20.277068,-11.712105,2.446961
15.797210,26.539326,-21.864032,-0.322929
15.829915,22.117676,-16.253319,2.269934
15.863604,20.271980,-14.058656,-0.163560
15.897012,16.433788,-5.710824,-6.365811
15.930380,9.906662,-5.349885,-7.410618
15.963723,-0.808820,-4.509341,-16.017033
15.996587,-9.837827,-3.422933,-10.094315
16.030177,-16.210970,-10.026676,-10.694532
16.064044,-10.519750,-5.805697,-5.799113
16.096767,-7.799690,-3.582452,-4.197634
16.130301,0.719633,-0.205310,0.498461
16.164105,12.857322,-7.077513,2.741608
16.197554,21.978658,-9.377675,1.996387
16.230490,25.710903,-21.025283,2.420475
16.263603,26.082167,-21.698377,0.370217
16.296573,20.348149,-11.750263,0.520458
16.330136,15.920064,-6.072211,-6.848559
16.363742,6.866217,-5.757812,-6.884623
16.397005,2.916840,-3.445379,-14.146346
16.430321,-3.555516,-4.027490,-13.018787
16.464321,-17.527828,-8.156887,-10.994267
16.496885,-12.269076,-4.959167,-9.921477
16.529966,-11.494973,-3.730150,-5.101029
16.563867,-0.206058,-0.720232,3.261318
16.597102,16.263046,-11.318843,3.457800
16.630622,24.149977,-8.904504,2.305699
16.664172,25.243568,-19.166568,0.489482
16.696559,24.766057,-19.123471,1.548954
16.730187,19.263387,-15.616738,-0.926589
16.763754,16.293274,-4.497369,-3.443883
16.796573,6.527126,-0.198875,-8.240089
16.830142,3.445978,-5.934839,-12.507307
16.863731,-4.336054,-3.844477,-11.316000
16.896630,-18.077167,-8.032983,-10.914807
16.930880,-15.741091,-7.945442,-1.993843
16.964052,-8.681087,-3.841185,-5.886954
16.997227,-0.184809,1.599384,0.109389
17.030309,7.156524,-1.905853,0.281179
17.065083,25.139117,-13.001129,1.893432
17.096857,25.982505,-21.858196,1.111847
17.130343,22.916471,-21.843082,0.676835
17.164085,23.963373,-12.678349,0.254992
17.196593,16.379917,-3.659818,-3.212984
17.230180,8.577534,-2.940783,-6.348602
17.264992,2.174761,-9.351188,-13.438236
17.297359,-5.438923,-3.855850,-11.395011
17.330243,-18.094376,-4.450381,-10.906876
17.364729,-11.648207,-8.327331,-5.549359
17.396655,-13.112613,-4.805933,-5.148915
17.430210,-4.375111,1.241139,-1.046303
17.464009,10.912562,-3.933963,0.882744
17.497078,22.743783,-6.601499,2.636110
17.530182,24.898342,-18.039158,2.771238
17.564081,24.691386,-20.929811,2.393838
17.596692,19.423654,-20.227836,-1.154645
17.630139,24.372197,-12.664732,-2.898883
17.663721,8.485204,-0.901000,-4.816258
17.696864,2.593462,-2.081533,-10.870513
17.730341,0.675788,-7.251996,-15.922309
17.764638,-13.239809,-7.718882,-9.209775
17.796811,-17.355290,-6.469663,-4.136730
17.830300,-13.375236,-6.050513,-10.602352
17.864003,-4.424343,0.104002,-2.456838
17.896993,1.097631,2.841420,0.397302
17.930430,17.580353,-9.153509,4.311812
17.963760,23.677854,-20.084029,2.874641
17.997237,24.145937,-19.179587,2.097844
18.030091,19.612205,-20.718665,-3.016203
18.063495,21.268602,-11.985053,1.178887
18.096759,15.369827,-3.001389,-6.101691
18.130270,11.702378,-1.685877,-10.205050
18.163509,0.811663,-4.697142,-15.301590
18.196539,-9.885862,-6.159753,-10.634526
18.230272,-17.671036,-8.761595,-13.507371
18.263446,-10.288402,-7.942449,-10.385221
18.296603,-6.493007,-4.952733,-6.408459
18.330297,0.840395,0.132284,-2.723502
18.363484,21.370509,-9.832290,4.075675
18.396917,21.806419,-11.872372,3.554918
18.430620,24.943384,-20.535801,3.577813
18.463543,21.595572,-17.024878,4.007588
18.497049,16.904266,-11.387379,1.574992
18.530510,16.572956,-5.258004,-4.147803
18.563561,9.567571,-9.165780,-9.086918
18.597733,1.275556,-7.141261,-12.270871
18.630263,-6.495851,-3.524391,-15.918418
18.663635,-14.890521,-5.991105,-14.723370
18.696646,-15.951190,-3.123198,-7.020349
18.730235,-11.592241,-2.056543,-4.352215
18.763517,3.547585,-0.332357,-3.172281
18.796774,21.267106,-12.499825,-0.844585
18.830592,26.074386,-17.210136,0.423789
18.863562,25.160815,-19.551599,3.480695
18.896867,22.730165,-15.750668,2.206785
18.930188,19.426797,-9.073600,1.519923
18.964048,13.547176,-5.412735,-4.096625
18.997137,6.655520,-7.148144,-10.046130
19.030207,1.527106,-5.733719,-12.388790
19.063513,-10.276879,-3.194578,-10.389111
19.097016,-14.193783,-9.017035,-12.318009
19.130255,-11.196435,-6.135810,-10.583198
19.163518,-8.172001,-1.574543,-6.040487
19.197530,1.411133,0.858053,0.430373
19.230213,17.927973,-7.645857,1.725533
19.263937,22.768025,-12.096388,2.238060
19.297092,22.721037,-22.375362,2.661699
19.329890,21.775593,-21.911917,1.440912
19.363482,20.663596,-10.935907,0.333404
19.397525,14.925238,-3.127687,-4.703727
19.430203,9.962180,-5.013338,-7.424086
19.463518,1.430437,-5.859120,-12.605174
19.497734,-4.788574,-3.953866,-12.735662
19.530452,-13.773586,-6.567829,-12.193656
19.563521,-13.435093,-4.782589,-8.215996
19.597537,-13.207187,-1.787934,-6.984884
19.630449,-2.759266,0.827226,-4.803389
19.663513,18.557072,-11.345629,-3.058403
19.696611,24.304409,-16.618298,2.089764
19.730160,24.573018,-18.949735,5.309032
19.763493,24.982890,-18.034968,0.675039
19.796782,18.478959,-7.630892,4.035421
19.830133,12.787738,-1.554192,0.435461
19.863514,8.258794,-11.731259,-7.029028
19.896741,5.656803,-8.229614,-11.115777
19.930311,-8.777157,-4.511585,-12.311873
19.963553,-13.295776,-5.150112,-14.559211
19.997100,-14.059104,-4.438111,-7.755695
20.030208,-14.247804,-4.047692,-8.388235
20.063517,-0.246462,-0.352110,-4.322137
20.097423,10.038647,-2.576103,-2.545427
20.130438,26.022310,-14.276236,3.379985
20.163533,24.450311,-19.750325,2.910555
20.197353,25.525944,-20.559444,3.543545
20.230379,20.719263,-16.830193,0.586750
20.263510,13.866963,-3.472914,-3.638568
20.296670,3.123348,-5.158641,-9.836629
20.330474,-0.782483,-10.338831,-12.271619
20.363644,-7.574627,-3.508977,-13.099295
20.396856,-11.544953,0.391017,-10.238870
20.430238,-9.023769,-3.073816,-12.127364
20.463520,-9.074498,-1.716105,-6.579800
20.497144,-2.275620,-0.551434,-3.221813
20.530438,9.926864,-2.504574,-4.631000
20.563549,21.319032,-16.715566,1.513788
20.597076,25.038707,-18.346225,0.726217
20.630941,25.676335,-22.226467,2.160096
20.663542,20.702054,-14.624755,2.158151
20.696931,18.044545,-4.255247,-2.673072
20.730618,6.907818,-9.563830,-4.964405
20.763556,-1.350378,-7.750906,-12.440267
20.797451,-5.243788,-2.960536,-14.935414
20.830295,-13.257168,-4.171746,-13.954953
20.863863,-15.094634,-3.049274,-4.726622
20.897220,-14.119411,-3.743767,-8.315659
20.930278,-0.415708,0.187203,-0.898606
20.964032,10.778632,-1.791525,0.130040
20.996708,25.771209,-10.630336,3.356641
21.030399,22.698590,-15.831326,3.269249
21.063707,23.288034,-22.273604,0.690901
21.097251,17.609832,-16.571011,-0.281478
21.130314,17.426520,-3.453460,-5.573302
21.163905,10.634077,-1.595792,-7.010772
21.197298,2.277715,-9.309886,-7.825578
21.230314,-9.558593,-6.212128,-11.990440
21.264211,-10.362924,-2.183291,-10.801078
21.296619,-11.386781,-6.748747,-9.674865
21.330318,-12.349284,-2.365705,-8.589655
21.364273,-3.332249,0.973727,-3.282568
21.396617,4.713902,1.789730,-3.286608
21.430384,21.852958,-9.447707,2.468510
21.463701,23.684737,-19.545314,2.316024
21.496818,22.545955,-21.159064,3.078604
21.530492,25.441995,-20.970813,-2.601692
21.563274,21.823478,-9.771834,-4.117126
21.597244,4.980716,-2.626084,-1.180683
21.630407,-2.542883,-7.986145,-12.989008
21.663718,-2.197806,-5.809139,-16.470301
21.698165,-9.862667,-0.067339,-10.695281
21.730372,-13.934302,-3.765914,-7.192888
21.763519,-9.002969,-2.507866,-9.664241
21.798373,-3.275235,-1.203728,-5.317263
21.830222,0.821689,4.080314,-0.215187
21.863649,13.854842,-9.078538,4.408631
21.898170,22.778799,-14.028428,3.102697
21.930201,24.737775,-22.674797,-0.260828
21.964133,23.263493,-21.224907,-1.822202
21.998004,18.614086,-16.085719,-1.243383
22.030234,12.153551,-2.719611,-5.004808
22.063744,8.765785,-3.880092,-3.697528
22.096748,1.828188,-6.991767,-12.462564
22.130218,-5.317712,-3.362477,-14.269353
22.164084,-16.055042,-6.755032,-15.260288
22.196998,-15.528000,-1.362798,-7.222666
22.230310,-6.992216,-0.537966,-2.912950
22.264016,-1.544914,-0.357198,-0.633738
22.296673,11.139421,-4.924600,-0.594831
22.330255,24.409458,-14.425430,-0.030976
22.363727,24.762167,-14.301227,0.714994
22.399220,21.831709,-22.113786,-0.792060
22.430277,17.655473,-18.548094,-3.269399
22.463735,16.808644,-9.821964,-5.100430
22.497053,8.053035,-0.912223,-3.430714
22.530179,1.323592,-5.915386,-11.999569
22.563732,-0.069734,-3.334194,-16.200196
22.597011,-8.974088,-1.863055,-10.651286
22.630186,-14.833207,-0.632391,-2.930009
22.664016,-10.598312,-1.427743,-7.361086
22.697353,0.098764,-0.592287,-0.825580
22.730148,4.945101,-0.084848,-2.497092
22.763728,20.217211,-13.033901,2.772585
22.797022,21.235232,-18.947640,0.543653
22.830517,23.508757,-23.339212,-0.921501
22.863655,20.047666,-16.960681,-0.249604
22.896916,17.461237,-9.032299,-2.216062
22.930310,6.714778,-1.440313,-4.061459
22.963848,5.802256,-5.716510,-11.852470
22.996847,4.749817,-5.170762,-14.241669
23.030319,-8.698146,-0.858951,-7.615030
23.063815,-12.318158,-4.088994,-10.845522
23.096737,-6.471309,-5.571207,-7.163558
23.130315,-5.983623,-3.297083,-4.341890
23.163366,3.400037,1.243383,-1.807388
23.196782,13.478640,-3.689447,-1.634101
23.230201,20.035844,-10.494310,1.481166
23.263679,22.108698,-19.230166,2.166830
23.296927,24.444026,-22.347977,1.180384
23.330170,18.221423,-11.169050,-0.950682
23.363273,14.184954,0.267113,-0.951430
23.396696,6.239961,-2.172516,-5.802854
23.430336,6.630380,-6.998950,-11.532982
23.464028,-3.777287,-5.297061,-11.812665
23.496591,-15.112441,-6.155712,-8.601926
23.530247,-14.148591,-5.426203,-4.289814
23.563733,-12.966412,-1.448095,-5.987065
23.597034,-3.718178,3.596070,-0.652443
23.630183,13.343063,-6.356383,2.327995
23.664113,25.041400,-8.596838,1.632904
23.696572,24.347506,-18.692200,0.617576
23.730138,25.538514,-21.196325,-0.117170
23.763622,18.827477,-15.114237,-0.318590
23.796790,15.490439,-7.117318,-3.674632
23.830185,1.658343,-6.687693,-5.856576
23.864035,2.984180,-8.618985,-13.945675
23.897055,-1.304886,-1.153747,-16.205134
23.930312,-11.616932,2.482876,-7.540957
23.964017,-12.950998,-4.200478,-7.309759
23.997264,-7.915064,-4.544058,-5.656803
24.030317,-0.529586,-2.932553,-3.585595
24.064039,5.237802,-0.976720,-3.897899
24.096962,18.651497,-3.946683,1.849288
24.130190,22.620776,-13.970067,-1.050643
24.163973,24.647390,-19.872284,-1.076980
24.197025,18.276192,-15.639484,-0.505494
24.230317,16.379169,-8.019066,-1.251015
24.264014,10.574818,-3.842681,-2.826157
24.296936,4.391572,-6.188634,-8.964061
24.330527,0.079161,-5.013937,-12.170311
24.364028,-7.038456,-2.772136,-9.665588
24.397138,-12.895182,-4.723629,-14.742374
24.430520,-7.917159,-3.109431,-9.542880
24.464049,-8.866644,-0.396703,-4.531039
24.496697,3.478151,0.914618,-2.244046
24.530518,16.907259,-8.228716,0.202766
24.563769,25.765822,-15.813369,0.977917
24.597882,22.484451,-19.709622,1.460366
24.630413,23.584776,-18.535374,0.899803
24.664109,16.219500,-11.086597,-0.071080
24.696717,12.695708,-2.059536,-5.455383
24.730380,6.623346,-2.645687,-8.792870
24.764070,1.214502,-6.438537,-12.597991
24.796891,-7.490078,-7.530332,-15.600427
24.830488,-12.964017,-0.052824,-9.813734
24.863655,-13.647437,-1.689918,-5.922868
24.897972,-11.003545,-0.847428,-3.535764
24.930318,-0.801338,-2.948714,-4.486445
24.963522,14.229249,-8.346784,0.286117
24.997142,23.345796,-11.792463,0.670400
25.030802,26.906251,-16.052498,1.026700
25.063556,27.838526,-18.029282,-2.486766
25.096760,24.207141,-9.734573,-2.033648
25.130725,12.741947,-3.218371,-1.970349
25.163684,5.051347,3.664756,-5.752724
25.196781,2.286694,-2.533305,-8.817262
25.230690,-3.126191,-8.515731,-10.193977
25.263736,-12.157143,-8.813221,-8.334962
25.296796,-12.470944,-3.477403,-3.695283
25.330411,-8.601776,-0.895314,-7.917309
25.363853,-3.622257,1.852430,-1.409188
25.397177,4.004296,0.764376,1.280944
25.430429,15.969746,-7.596175,1.808884
25.464404,23.787392,-16.447256,-2.743404
25.496613,27.421322,-18.242223,-3.940847
25.530811,23.855181,-17.313988,-1.501368
25.563718,16.702697,-12.316961,-0.956667
25.596934,11.420750,-2.707340,-5.204731
25.630671,6.403371,-3.597566,-5.192311
25.663619,1.545063,-10.253535,-10.579158
25.696922,-8.371924,-3.743019,-13.447663
25.730673,-12.103570,0.265018,-11.909633
25.763582,-15.842250,-0.593185,-5.202487
25.796922,-11.617680,-0.545748,-4.719739
25.830675,0.714096,-3.572875,-2.068215
25.863592,11.096623,-5.147867,-0.350464
25.896619,21.339533,-12.521823,0.881846
25.930383,23.905012,-16.011646,0.879152
25.963599,25.010724,-18.795603,-1.309525
25.996654,19.186321,-14.335345,-2.026914
26.030349,15.054529,-8.220935,-3.871413
26.063601,9.676960,-4.745028,-4.047991
26.097015,3.544742,-6.898390,-7.470924
26.130882,-1.869040,-5.739106,-12.378913
26.163559,-6.535356,-4.182670,-12.385348
26.197525,-15.351720,-1.587562,-12.366493
26.230686,-12.802553,1.091795,-9.601989
26.263588,-8.277949,-0.983902,-5.843707
26.297463,3.195326,0.712749,-4.305078
26.330557,15.119025,-7.221020,-3.624651
26.363827,23.158593,-13.300265,0.505494
26.397946,25.051576,-26.712613,3.066783
26.430545,23.849195,-19.748829,2.958890
26.464084,22.017865,-12.520775,-0.007781
26.496882,12.990803,-3.009320,-2.420924
26.530469,1.943563,-3.704860,-9.636108
26.563651,-0.861794,-8.907197,-15.273457
26.597026,-9.246138,-5.445806,-9.574156
26.630781,-16.109213,-6.825813,-7.653937
26.663669,-12.236902,-5.413034,-5.570159
26.696594,-9.822563,-2.480481,-3.837444
26.730693,-0.298388,1.377912,2.001175
26.763795,12.686879,-0.873316,0.384732
26.799869,20.643095,-13.011604,1.249219
26.830833,21.407022,-11.769567,1.201633
26.863474,25.848874,-15.126807,-0.492924
26.896891,22.329122,-15.096729,-4.316451
26.930211,14.975368,-8.866045,-3.639316
26.963717,8.651308,-4.729166,-5.366495
26.996597,0.750310,-4.196886,-15.883851
27.030136,-1.395271,-3.416049,-14.999311
27.064451,-16.889900,-7.529435,-7.174033
27.096876,-16.798468,-7.856853,-3.733891
27.130317,-12.019770,-4.699537,-8.063211
27.164262,-3.686005,-1.159583,0.630296
27.196775,11.831819,-2.571464,1.495981
27.230400,29.643669,-9.503375,3.053913
27.263814,23.887803,-13.713729,0.707512
27.297210,25.057113,-22.492831,-0.278785
27.330185,18.343232,-13.764757,-1.120526
27.364387,16.099486,-4.813864,-6.866516
27.396955,9.131961,-4.413419,-6.706847
27.430179,-2.253772,-6.941936,-10.280470
27.463754,-3.159711,-3.704710,-14.241669
27.496713,-10.417394,-4.443198,-9.962330
27.530138,-17.194872,-5.984072,-6.440932
27.563930,-11.694746,-3.082196,-5.899673
27.596623,-1.178737,0.253944,-3.832206
27.630319,8.190407,2.160246,-1.636795
27.664279,19.811679,-10.343171,-0.178973
27.697140,26.580328,-13.526974,3.091025
27.730198,26.084112,-17.925280,0.019454
27.764461,19.284038,-12.592454,0.476164
27.796889,17.427717,-5.456730,-2.623540
27.830183,10.891912,-3.334045,-6.514406
27.864169,-0.839647,-8.552543,-9.719160
27.896619,-6.084183,-4.496022,-12.882013
27.930408,-10.807064,-4.043652,-8.744984
27.964175,-14.364376,-6.287997,-10.623153
27.997056,-8.548054,-2.580144,-7.198424
28.030317,-5.471694,0.336846,-3.738979
28.064073,10.306359,-0.758989,-1.085660
28.097015,23.291476,-11.230404,0.584206
28.130211,19.045956,-13.383616,1.132049
28.164382,25.385280,-21.464485,1.020116
28.196618,28.053114,-16.992854,-0.739835
28.230148,19.053288,-8.340200,-1.048847
28.263795,12.103720,-2.657509,-8.712362
28.296612,3.620910,-5.194107,-12.038775
28.330310,-7.015261,-7.415856,-12.004507
28.364022,-15.235597,-4.669010,-9.633115
28.397199,-13.450656,-4.580571,-10.429515
28.430186,-5.902067,-3.604300,-7.555023
28.464016,-2.628329,-0.292851,-3.617020
28.496747,7.982853,2.806553,-0.077665
28.530443,18.847828,-4.805334,0.417803
28.563869,19.963716,-12.350930,1.198191
28.597229,20.795431,-20.273327,1.651011
28.630190,20.935048,-19.150257,-0.915964
28.663808,20.919186,-11.482552,-3.421586
28.697353,15.002454,-3.959403,-6.870407
28.730365,7.684914,0.010475,-5.044314
28.764017,-0.475715,-8.269419,-10.401532
28.797076,-3.010966,-6.703854,-12.379213
28.830799,-9.751333,-3.162853,-10.821729
28.863824,-15.257296,-6.139102,-1.372226
28.896809,-10.819784,-3.112723,-7.741329
28.930498,-2.234468,-0.009428,-4.056521
28.963807,7.081703,-2.137649,-0.201120
28.997218,20.294277,-10.517954,2.933900
29.030225,23.380962,-18.483598,2.919684
29.063728,27.268686,-22.689313,1.063812
29.096696,24.828010,-17.897296,1.230364
29.130281,21.300776,-9.645535,-3.271045
29.163732,5.190964,-5.580784,-6.740816
29.196700,-1.500021,-5.695560,-13.832246
29.230234,-5.018276,-6.529520,-15.667766
29.263489,-13.694425,-3.827118,-9.296718
29.296871,-15.155838,-5.666081,-9.732628
29.330628,-7.099810,-3.692739,-8.200134
29.363784,-2.079289,-0.177028,-1.718649
29.396678,5.604128,-0.149344,-1.640536
29.431616,21.305714,-7.795649,2.008657
29.463551,19.978680,-15.774013,1.905703
29.497124,24.763513,-20.688287,-0.247659
29.530365,23.869696,-15.570648,0.905639
29.563535,19.601879,-5.156696,-0.593185
29.597604,9.988068,-4.611247,-4.824339
29.630181,6.181451,-7.780984,-9.378423
29.663292,-3.376244,-4.991041,-10.995165
29.697410,-13.699064,-6.379428,-11.076721
29.730180,-11.386182,-3.972571,-12.833379
29.763521,-9.069111,-0.333105,-7.717087
29.797228,-6.360873,-0.607550,-3.124096
29.829924,4.140920,0.766172,-2.531061
29.863466,21.733543,-6.995957,0.029629
29.896964,21.530478,-13.098546,1.105412
29.930153,25.057412,-19.336113,1.756659
29.963526,20.359821,-17.328504,-1.225875
29.997662,18.905291,-10.440139,0.718735
30.030207,12.910894,-5.863011,-5.024262
30.063524,5.967162,-1.699345,-6.680959
30.097360,-0.033819,-6.763562,-13.247740
30.130213,-4.339795,-5.351830,-13.032853
30.163643,-11.570542,-3.613578,-11.601069
30.197442,-12.646026,-3.386570,-3.011115
30.230318,-10.566438,-2.115951,-6.514855
30.263235,1.558681,-2.509512,-2.916840
30.297443,9.621443,-8.898219,0.683868
30.330171,17.413501,-11.532982,4.154238
30.363792,26.900864,-18.279933,0.113130
30.397993,31.983337,-21.667999,-5.129760
30.429934,24.963436,-14.448326,-6.929666
30.463471,12.337163,-2.282504,-2.682200
30.496673,4.452776,3.983795,-8.797210
30.530218,4.613642,-3.480545,-11.696991
30.563547,-3.476355,-4.598228,-8.890287
30.597185,-16.704941,-7.866580,-7.719182
30.630320,-15.000957,-7.593631,-5.276560
30.663596,-11.713152,-4.321090,-7.303773
30.696856,-3.332848,-0.073026,-1.040767
30.730309,6.779125,-0.109688,0.224913
30.763895,20.682002,-6.258517,0.211894
30.797000,22.416513,-15.515130,0.181068
30.830207,25.591937,-19.957880,-3.075163
30.863514,17.798083,-14.931972,-3.174226
30.897171,14.627748,-8.440910,-3.042840
30.930216,13.884322,-4.818653,-6.275427
30.963645,7.509532,-3.595321,-10.062740
30.997440,0.452371,-4.678886,-13.101988
31.030300,-5.056136,-1.991748,-14.196626
31.063640,-12.441614,-6.398882,-11.732606
31.097100,-10.781924,-4.881353,-3.874256
31.130379,-9.705542,-4.263328,-3.523044
31.163686,3.580357,-2.831843,-2.472700
31.196770,14.648698,-5.074093,-2.237012
31.230286,21.254237,-12.181086,-1.585317
31.263521,24.045527,-10.923486,-1.867095
31.296940,22.726424,-14.049827,-2.108020
31.330304,16.544075,-8.397364,0.816901
31.363555,12.458075,-5.347940,-1.806340
31.397232,7.977017,-3.238872,-4.208109
31.430269,3.378489,-8.347084,-9.128669
31.463592,-0.756894,-7.284020,-12.310377
31.496704,-10.823824,-6.454699,-11.038113
31.530305,-10.079051,-0.528090,-8.774763
31.563679,-6.830752,-2.176108,-8.337207
31.597207,-6.593867,-3.156419,-5.857624
31.630490,4.950189,-1.192056,-3.622706
31.663902,18.862942,-4.850826,-1.923211
31.696608,24.659362,-14.002988,0.711103
31.730480,22.613444,-15.429535,1.799756
31.764544,21.632833,-18.490631,2.723951
31.796749,19.635998,-16.002069,-3.576017
31.830503,12.946210,1.289623,-3.275983
31.864349,4.052181,-4.441702,-11.131789
31.896605,0.526145,-8.214500,-10.608637
31.930315,-10.812152,-4.734553,-11.221276
31.964356,-13.494651,-3.806617,-9.904867
31.996605,-13.247591,-6.523385,-14.266061
32.030317,-9.707488,1.762345,-4.669758
32.064233,-0.280880,1.348433,-0.304823
32.096848,10.981697,-5.004509,-0.078712
32.130816,24.458691,-20.314180,1.047800
32.164277,19.407792,-21.461492,2.211573
32.196922,21.812255,-18.265867,1.586515
32.230657,19.320401,-10.735535,-4.550941
32.263890,14.266210,-3.278827,-4.989395
32.296717,5.404056,-4.441552,-4.456517
32.330681,6.286051,-6.048568,-13.453200
32.363826,-1.548505,-2.967270,-12.710822
32.396656,-7.081254,-2.475543,-10.365168
32.430672,-12.903562,-6.575610,-10.466177
32.463682,-10.745411,-1.043460,-7.150239
32.496615,-8.693058,-3.576317,-5.083820
32.530680,7.423038,-5.176748,0.205759
32.563288,24.538151,-15.336906,3.186048
32.596581,28.495908,-20.492105,3.174376
32.630395,27.599098,-21.737583,-1.982919
32.663547,20.371343,-14.719180,-2.784855
32.696607,10.723713,-2.222647,1.245927
32.730801,3.629739,-4.321688,-9.224440
32.763565,7.198724,-5.485761,-9.971458
32.797824,-1.043311,-2.163388,-8.848088
32.830187,-9.361363,-5.992452,-7.686709
32.863514,-6.630829,-7.139914,-14.253191
32.897571,-6.414445,-2.880627,-8.037472
32.930373,-7.068834,0.421544,-2.880627
32.963519,4.207062,4.727520,-1.019218
32.997555,20.072357,-3.851809,1.165270
33.029907,20.346652,-17.891161,0.699281
33.064124,23.518334,-25.488533,-0.327119
33.096928,24.938596,-22.634842,-0.702873
33.130216,14.471969,-7.750158,-2.329492
33.164013,11.392916,-2.860724,-2.644341
33.196869,2.806853,-3.824874,-8.119327
33.230318,-1.185621,-4.952134,-12.603677
33.264103,-5.681643,-5.319507,-10.557759
33.296595,-14.637026,-2.789345,-10.400484
33.330334,-5.962074,-1.990700,-10.247250
33.364053,-6.734531,-0.670700,-5.033989
33.396778,-1.044657,1.362649,-2.733677
33.430311,15.951340,-8.005000,-2.005066
33.463726,21.915958,-12.170910,-0.726367
33.497703,22.975131,-20.577701,3.489374
33.530192,22.426091,-16.479579,2.857432
33.563747,20.116202,-9.528365,-3.148787
33.596961,14.053418,-2.087669,-5.200092
33.630309,2.309140,-6.724355,-7.453117
33.664021,-1.353520,-8.040914,-11.360893
33.696753,-3.591580,-2.685941,-13.218859
33.730188,-11.200625,-5.483067,-5.744045
33.764100,-12.725786,-4.666765,-0.790115
33.797043,-8.765336,-0.747018,-6.547178
33.830315,1.124716,-1.147163,-6.119199
33.864036,14.859844,-3.460643,-1.120676
33.897139,22.464549,-9.838874,0.333853
33.930679,23.421665,-12.398966,3.161058
33.964616,22.458862,-14.176125,1.478921
33.997260,21.642859,-17.288100,-1.097781
34.030200,15.391525,-5.559086,-4.107998
34.064117,4.296848,-3.058253,-5.180040
34.096881,1.343195,-5.554896,-7.548140
34.130318,-7.381138,-3.495659,-13.597905
34.164027,-7.817946,-5.373080,-7.766469
34.196969,-12.970751,-8.393323,-11.147502
34.230309,-7.490976,-1.278998,-7.662467
34.264106,-2.326948,0.345675,-4.503205
34.296883,8.197740,2.441874,-1.609410
34.330987,22.778649,-6.284854,-2.842019
34.364597,23.938681,-10.229592,-3.145195
34.396955,22.095230,-18.382140,-2.272179
34.430312,14.739980,-15.258942,-0.961606
34.463855,14.216230,-10.636471,-1.354718
34.497246,13.413844,-4.928341,-3.292294
34.530189,3.503141,-4.039162,-7.760483
34.563717,1.208367,-5.681344,-13.306700
34.596745,-4.295950,0.910577,-14.449822
34.630012,-11.433020,-1.972593,-11.500210
34.664013,-11.297893,-3.109132,-4.308520
34.696578,-9.269932,0.148147,-6.489715
34.730184,2.593312,-0.497712,-4.976227
34.764043,11.844987,-8.334663,-3.316387
34.797536,19.757358,-13.082535,-2.228483
34.830188,22.495525,-23.786195,4.244024
34.864074,23.030648,-22.413221,2.622193
34.896976,17.082640,-10.344667,2.717366
34.930342,14.117465,-1.024306,-3.003334
34.964036,8.363844,-0.047736,-9.700005
34.996951,3.471866,-9.989116,-10.060196
35.030746,-4.491683,-4.883448,-10.442833
35.063914,-8.669414,-3.675081,-11.500360
35.096789,-11.037813,-1.770126,-11.786028
35.130201,-12.366194,-0.302728,-8.695003
35.163917,-5.801657,-0.608448,-5.279104
35.196711,3.350805,-0.380093,-3.919149
35.231050,19.213107,-9.759264,-1.534139
35.263711,20.393042,-16.017182,-1.471140
35.296835,25.841990,-18.056068,-0.141263
35.330188,20.768047,-15.621826,1.442259
35.363863,13.973958,-10.646946,2.623989
35.396613,9.624136,-0.325473,-1.130253
35.430482,5.350783,-4.660630,-4.738444
35.463849,8.919019,-15.255350,-5.518233
35.496814,-8.600429,-6.848260,-8.960769
35.530595,-11.579671,1.053935,-9.083477
35.563731,-7.493969,-2.223245,-13.581743
35.596907,-13.317624,-0.053123,-10.533816
35.630623,-6.553014,4.144511,-5.076487
35.663716,4.952882,2.291931,-3.745862
35.696572,20.241304,-4.840051,-0.375005
35.730287,20.612418,-11.444244,4.011778
35.763739,23.446207,-23.032294,0.134230
35.796967,26.498474,-24.193374,1.519923
35.830396,13.304006,-10.491168,-1.326435
35.863548,12.190812,4.070587,-2.524776
35.896853,8.731816,-3.384475,-7.432017
35.931121,7.146947,-15.335559,-13.402322
35.964080,-1.260443,-6.912457,-8.678094
35.997198,-19.181233,-2.538543,-8.780300
36.030336,-11.603015,-3.112723,-9.963826
36.064710,-6.604641,3.192932,-5.637648
36.096775,-2.002971,4.005642,0.157125
36.130329,12.924512,-4.206912,0.474518
36.167077,25.144504,-15.384043,-2.219355
36.197140,23.033491,-16.458480,1.116037
36.230384,22.840751,-19.354968,1.705930
36.263552,20.463224,-15.914378,-2.650775
36.296594,13.174415,1.459019,-2.984479
36.330360,6.496300,-1.574094,-6.357132
36.363602,1.887895,-9.744300,-8.898667
36.396917,-4.550343,-4.557226,-12.869892
36.430723,-7.497112,-4.899460,-8.596239
36.463648,-7.977615,-3.454657,-10.948028
36.496855,-4.275149,-0.823934,-5.430543
36.530394,-6.563789,0.570439,-2.081084
36.563664,4.287270,4.195539,-1.659241
36.597166,18.844387,-7.088137,1.978130
36.630352,21.877200,-17.707998,-0.473919
36.663789,26.503562,-23.592557,-2.760463
36.696814,22.511686,-22.127553,-1.744238
36.730505,13.911856,-11.547348,-1.168562
36.763583,6.966178,-1.214203,-3.986189
36.796578,3.815745,-3.424579,-7.560411
36.830279,4.968744,-5.475136,-9.116099
36.863578,-3.548932,-5.330132,-9.857879
36.896986,-12.441913,-2.780067,-8.521118
36.929937,-13.399927,-2.178801,-8.330324
36.963486,-10.850909,0.073624,-9.410746
36.996720,-0.898157,2.032002,-3.339582
37.030379,6.390951,4.587005,-2.917439
37.063518,18.872370,-6.925625,0.120163
37.097428,20.114406,-16.777369,1.115439
37.130400,21.153826,-24.527526,1.706827
37.163550,14.967886,-22.492682,-2.338470
37.196909,17.192777,-10.647994,-0.355103
37.230679,12.567613,-1.479071,-4.870279
37.263532,7.829918,-0.310359,-6.586385
37.297761,2.175210,-8.125313,-10.935458
37.330558,-2.163388,-4.819550,-13.266296
37.363639,-9.233119,-3.198319,-12.616696
37.397338,-13.821621,-1.946406,-3.604599
37.430750,-9.798321,1.055731,-7.077962
37.463522,1.038223,0.143059,-5.807493
37.497023,10.414999,-1.946256,-1.745585
37.530504,16.594804,-15.381649,0.078413
37.563556,21.024086,-19.703636,2.935695
37.596920,25.484792,-20.284550,1.352922
37.630491,20.454395,-14.777540,0.992881
37.663642,16.532104,-6.064580,1.485356
37.696849,9.048161,0.226410,-3.797639
37.730807,3.260421,-4.745327,-7.312303
37.763539,-0.493971,-9.386204,-8.173348
37.797100,-15.456021,-4.888536,-5.939179
37.830716,-14.988537,-8.568555,-12.852833
37.863545,-6.602546,-5.231667,-10.382826
37.896674,-6.343514,3.566291,-3.653533
37.930678,5.342702,1.172004,0.867480
37.964868,23.327689,-4.602418,-1.313715
37.996835,24.825615,-14.884535,4.270361
38.030826,21.694037,-19.052241,1.271516
38.063254,21.775742,-18.741133,1.060819
38.096603,15.839856,-10.795392,-0.435012
38.130696,13.139249,-3.877698,-5.400015
38.163795,5.104321,-3.469621,-4.804586
38.197001,-0.068088,-6.188634,-11.713451
38.230701,-5.794923,-6.294132,-12.367092
38.263647,-13.399478,-4.610948,-9.939883
38.296675,-8.609408,-2.667685,-4.084055
38.330690,-8.233056,-0.801488,-4.439158
38.363808,2.664542,1.203279,-2.455491
38.397101,10.591428,-0.223866,-5.761403
38.430685,18.228905,-8.188761,-2.817178
38.464242,19.708724,-10.543243,-2.106524
38.496624,19.543369,-17.681362,-1.681687
38.530645,18.475217,-19.007348,-1.908247
38.563473,19.883956,-11.157528,-0.017508
38.596659,11.715696,0.741481,-3.742869
38.630681,12.051644,-3.582751,-8.003653
38.663719,2.688784,-3.270447,-15.817708
38.696611,-6.657016,-5.558038,-10.558806
38.730693,-15.511090,-10.316235,-10.597115
38.763642,-9.564728,-3.183803,-7.498159
38.796782,-9.465515,-1.434028,-5.710375
38.830681,1.218543,2.729936,-1.878917
38.863860,16.306143,-7.471822,-1.359805
38.896745,19.023360,-14.083496,1.710419
38.930393,20.145532,-21.398941,2.264547
38.964361,26.684480,-20.702503,0.077066
38.997189,18.818798,-11.481355,-0.616828
39.030467,15.138479,-0.462995,-1.629462
39.063813,6.110071,-0.080658,-9.539738
39.096669,5.159390,-7.842936,-7.399395
39.129946,-4.587305,-9.116248,-14.169242
39.163487,-10.738528,-3.305164,-9.446510
39.197138,-11.509638,-3.798985,-11.281432
39.230183,-8.185619,-0.892022,-9.580890
39.263802,-1.035679,1.319252,-4.139573
39.297607,5.526164,-1.212706,-3.624053
39.330207,20.879381,-14.855804,0.155329
39.363914,22.024000,-18.671100,2.598400
39.397824,25.140165,-20.555254,3.465581
39.430803,23.456981,-17.321470,1.601628
39.464280,16.240749,-5.985868,-0.132733
39.497468,10.312644,-1.481316,-2.855636
39.530276,4.733805,-7.344476,-6.274678
39.563655,1.923062,-8.269569,-8.806787
39.597532,-6.589976,-5.128862,-10.612678
39.630214,-11.298192,-5.317263,-13.182346
39.664095,-10.370107,-6.786008,-13.515601
39.696653,-9.519835,-2.119692,-7.637327
39.730490,-1.377014,-0.017059,-3.924686
39.764018,11.722280,1.306832,-3.024883
39.796836,16.797570,-9.427655,-3.654580
39.830442,24.717872,-12.607119,3.574521
39.863738,22.508993,-19.209067,2.128970
39.896930,19.417669,-18.381990,0.728163
39.930690,16.537042,-7.546494,1.397815
39.963802,9.526270,-1.484907,-3.456453
39.996996,4.993136,-7.834856,-11.702228
40.030217,0.592736,-6.232778,-13.152418
40.063597,-9.685490,-4.289365,-14.710800
40.096857,-10.727903,-2.308242,-15.372072
40.130540,-8.979624,0.088439,-6.076551
40.164005,-5.145173,-0.126448,-4.819101
40.197282,10.384921,-2.249582,-2.738316
40.230601,19.364695,-7.075717,-0.812262
40.264394,18.942702,-17.672832,3.629440
40.296831,22.240084,-18.014317,2.546324
40.330670,23.959332,-20.115304,-0.671298
40.363474,14.245410,-8.920216,0.139916
40.396862,10.701715,0.310359,-4.245221
40.430463,5.882165,-5.369788,-10.167191
40.463674,0.738039,-6.857538,-14.193334
40.496648,-8.377311,-3.237525,-12.607119
40.530512,-14.770208,-6.446917,-9.594956
40.563636,-8.746930,-3.931270,-9.142735
40.597097,-6.900186,1.466052,-2.700906
40.631001,1.943114,5.183781,0.961007
40.663757,24.971966,-8.908095,-0.723973
40.696824,22.514829,-13.705498,0.223866
40.731085,20.705496,-20.303555,1.793321
40.763498,18.148397,-22.073681,-2.933900
40.796849,20.384811,-13.407110,-2.150968
40.830462,17.513911,-5.630017,-3.373102
40.863634,1.636495,-4.302833,-6.475799
40.897107,3.917802,-7.594828,-12.992898
40.930710,2.333682,-4.669907,-18.345477
40.963612,-12.191860,-4.353712,-8.881608
40.997090,-16.019128,-6.622149,-4.159924
41.030680,-11.607504,-4.005792,-9.562184
41.063673,-1.647868,-2.176856,-1.104365
41.096982,3.034460,3.013510,-2.519089
41.130690,17.469467,-6.468765,1.041964
41.163833,20.918288,-12.592753,2.191970
41.196602,22.819203,-16.247633,-0.451173
41.230468,24.168683,-20.908561,0.091432
41.263655,10.989329,-10.578858,0.889627
41.296984,14.165650,-6.158256,-3.643656
41.330798,12.051944,-5.187522,-7.761082
41.363329,4.378104,-6.842424,-10.462287
41.396601,-3.253986,-6.417887,-14.548587
41.430425,-10.723713,-5.040124,-15.834169
41.463753,-14.418248,-4.603915,-7.150688
41.496671,-15.730616,-3.624951,-9.759264
41.531183,-1.190410,-0.830369,-6.533411
41.563794,6.648636,-3.191136,-7.744172
41.607478,22.434920,-17.468120,3.798237
41.631876,20.736023,-16.877031,7.441594
41.663691,24.061389,-21.661864,2.964127
41.696575,22.519468,-20.868158,1.940869
41.730139,13.865467,-5.864058,4.904697
41.763364,7.573729,0.974774,-4.652848
41.796753,3.945037,-9.566823,-8.140876
41.830508,-0.939458,-6.608532,-10.470367
41.863508,-9.977294,-7.231196,-12.252316
41.897059,-11.354308,-4.106053,-15.029689
41.930677,-8.645472,-0.679379,-11.007885
41.963499,-5.902516,0.382637,-4.780793
41.997345,4.778848,2.214865,-3.115267
42.030323,22.078320,-6.396039,-3.315190
42.063523,20.255520,-10.963441,-0.492625
42.097318,20.583387,-11.511583,3.627345
42.130210,19.612055,-19.693610,1.568108
42.163522,15.458416,-13.673175,0.984202
42.197338,14.105643,-2.155906,-2.217858
42.230222,7.042047,-8.426993,-4.737546
42.263478,1.373722,-6.946725,-8.173947
42.296617,-1.990999,-4.386484,-10.743017
42.330407,-8.645472,-5.156846,-10.218518
42.363650,-17.983640,-9.509211,-8.728374
42.397538,-15.853323,-0.781136,-13.214071
42.430151,-2.742806,2.059686,-7.412713
42.463275,5.618943,2.410149,-6.758474
42.496991,20.646237,-5.225232,-1.774915
42.530493,17.515108,-13.879084,1.127260
42.563727,17.586638,-21.097112,3.768458
42.596671,18.869527,-20.029259,2.137051
42.630305,16.664837,-7.736540,-1.049596
42.663615,14.149938,-2.421971,-5.684187
42.696636,9.122833,-10.154920,-5.905060
42.730311,1.028795,-5.133501,-9.633414
42.763249,-5.797317,-3.300076,-12.146518
42.796542,-12.470944,-5.547264,-10.301271
42.829951,-13.913951,-3.173777,-1.543866
42.863512,-13.734379,-0.731155,-5.500426
42.896534,0.845782,3.490721,-1.177540
42.930112,20.276470,-3.637521,-0.817350
42.963592,21.231641,-8.925753,0.812860
42.996539,21.752099,-13.612869,2.531061
43.030104,18.448581,-19.729225,0.101757
43.063593,13.925324,-13.349049,-0.193339
43.096593,11.934474,-2.972657,-2.247188
43.130221,6.389903,-8.552394,-7.252595
43.163548,0.657232,-5.130209,-11.492279
43.196621,-2.425413,-3.356641,-12.613853
43.230217,-10.067080,-3.752596,-13.233524
43.263535,-11.181321,-4.421201,-11.204516
43.296586,-12.013635,0.676536,-9.444116
43.330135,1.903159,2.222647,-3.828764
43.363634,13.666591,-3.155521,-0.595429
43.397143,21.122252,-9.937339,1.873380
43.430097,22.475323,-21.957858,0.765424
43.463542,25.797247,-23.081377,-2.349095
43.496590,21.115667,-13.299667,1.580230
43.530150,11.993284,-0.505344,-0.260828
43.563735,5.096539,0.105199,-5.957884
43.596594,7.302426,-10.047027,-7.942748
43.630338,-8.431931,-7.076166,-11.472227
43.664003,-11.868481,-0.632990,-7.026036
43.696895,-12.528108,-1.878917,-12.645128
43.730421,-8.243381,3.741672,-9.550961
43.764012,-1.257599,3.195775,-4.448436
43.797306,3.605647,2.366603,-4.438859
43.830439,18.142561,-8.426843,-3.795843
43.869495,19.147563,-20.266743,4.490336
43.897512,20.143736,-20.841671,2.087070
43.930136,27.446911,-22.451231,0.772008
43.963738,17.410807,-9.789043,-0.396255
43.997153,12.754068,-0.265916,-4.483303
44.030364,5.303645,-3.329406,-8.673156
44.063725,0.704519,-9.060731,-10.185597
44.097054,-9.320511,-5.926908,-10.560303
44.130943,-6.868611,-2.259608,-9.290882
44.163729,-10.753492,-4.133288,-6.232030
44.197162,-11.856809,0.582111,-6.460086
44.230989,-2.030505,1.725682,-0.557869
44.263976,6.133266,4.220679,-2.586279
44.296972,18.663319,-1.778357,-2.278912
44.330316,20.176508,-14.887079,-1.361751
44.363834,20.686641,-19.326985,-3.158813
44.396918,20.143287,-24.355886,-2.716768
44.430782,16.497836,-11.051730,-2.254970
44.463707,10.063039,-2.422719,-2.421821
44.496852,2.955897,-1.478772,-4.480011
44.530562,5.355272,-5.771130,-12.228971
44.563709,-1.839561,-4.456517,-10.369209
44.596608,-10.439691,-5.866153,-12.408244
44.630803,-9.122683,1.271666,-9.035740
44.663698,-1.775214,1.818760,-2.959638
44.696590,-4.585359,1.404549,-0.883342
44.730181,5.137093,-0.818098,0.656633
44.764085,15.389281,-7.704517,-0.647056
44.797006,22.239635,-13.983684,-3.297981
44.830389,21.118959,-20.543133,-0.551584
44.863825,14.758835,-21.570731,-0.183313
44.896584,22.645766,-20.115454,-5.306638
44.930129,13.241306,-1.237846,-6.703555
44.963689,5.512697,2.236563,-7.952176
44.996617,3.105241,-6.486274,-10.933213
45.030188,-1.074885,-3.378339,-13.782115
45.063717,-11.077768,-4.364636,-5.576744
45.096951,-14.370362,-5.648872,-9.524025
45.130117,-4.672451,-0.503399,-7.166550
45.163326,-3.282119,-1.108405,-5.852386
45.196851,3.603701,-0.045192,-3.150732
45.230078,17.728200,-8.389283,0.621916
45.263567,17.925579,-4.745926,-1.640087
45.296782,23.963073,-15.243528,2.152315
45.330075,19.279997,-16.160840,3.350356
45.363475,14.030972,-15.297998,0.148296
45.396828,21.496060,-10.410660,-4.302983
45.430096,11.208257,-1.603125,-6.105582
45.463548,2.287292,-7.610840,-6.394393
45.496843,-2.122087,-4.103060,-13.468464
45.530163,-7.538862,-7.487684,-13.472055
45.563486,-15.532938,-8.604021,-11.953928
45.596955,-8.325685,-3.783423,-4.358949
45.630105,-7.234937,-2.846358,-2.012548
45.663283,2.976697,0.633439,-1.008743
45.696605,10.595469,-4.723031,-0.506242
45.730307,18.903047,-7.994226,-2.600645
45.763625,24.610578,-20.632321,-3.620910
45.797021,25.201967,-16.371836,-1.015776
45.830160,18.755948,-9.798919,-0.623562
45.863849,17.350202,-3.223309,-1.275556
45.896794,11.637133,-2.381717,-8.991147
45.930208,1.269720,-8.127108,-2.571165
45.964143,-6.370450,-4.723779,-11.864890
45.996980,0.963252,-4.423745,-10.791651
46.030315,-7.131534,-8.525608,-12.026055
46.064011,-9.224141,-2.625037,-4.452327
46.096900,-7.946938,-0.448779,-4.933578
46.130421,0.441147,3.458398,-0.041152
46.163820,9.136300,1.081919,-2.773632
46.196918,19.393876,-10.210886,-0.306020
46.230205,21.307360,-15.556881,3.878147
46.263812,22.007090,-19.429341,1.877420
46.298088,19.231962,-17.573170,0.878703
46.330377,19.294812,-9.525971,-1.237248
46.364028,13.604340,-2.944674,-8.945506
46.396903,7.178821,-6.638760,-5.812282
46.430687,-1.639189,-4.339945,-12.658746
46.463647,-6.068321,-2.805356,-12.494887
46.496575,-11.325277,-4.314057,-11.279786
46.531003,-13.350246,-3.448522,-5.138739
46.563669,-10.269547,-0.490979,-8.890437
46.597448,4.000405,0.227457,-5.954891
46.630499,13.967373,-5.738358,-2.750737
46.663665,19.562822,-6.115458,-0.099363
46.696987,17.745259,-20.275422,3.984543
46.730581,22.830426,-20.589373,0.445786
46.763398,22.445245,-12.869144,1.046004
46.796649,15.240087,-0.974625,1.044508
46.830653,8.405145,-1.704583,-6.787654
46.863200,4.378702,-7.941850,-6.255973
46.896959,-3.126191,-6.521739,-12.429194
46.930133,-4.131941,-7.006432,-12.685831
46.963474,-7.513123,-3.064688,-10.714734
46.996999,-9.363010,-1.047351,-5.033241
47.030198,-10.423679,-1.481016,-4.725575
47.063992,0.697037,0.759139,-2.317371
47.097140,14.498755,-3.555217,-2.065372
47.130322,19.291370,-10.179162,-1.829684
47.163544,22.718792,-16.522227,0.438304
47.197190,22.765032,-21.292994,-0.812561
47.230102,15.884300,-14.215781,-0.798644
47.263265,15.363692,-5.131257,-1.133396
47.296956,6.799177,-3.735387,-2.908161
47.330139,6.878188,-3.745713,-7.046986
47.363829,4.227862,-5.814077,-9.683545
47.396924,-6.269890,-5.903564,-9.877332
47.430488,-15.450185,-5.720850,-14.231044
47.464139,-13.532661,-2.790691,-5.006454
47.496895,-11.383189,0.003591,-8.075781
47.530190,-0.259780,0.993629,-5.379664
47.564128,9.136001,-2.375881,-6.320768
47.597394,18.545101,-13.542387,0.763179
47.630115,17.827563,-17.019491,5.372780
47.663665,22.983361,-18.483298,0.987943
47.696880,20.693076,-17.719820,1.606267
47.730137,14.885433,-7.469727,-2.337423
47.763435,12.281646,-1.173949,-3.929175
47.796800,1.730770,-8.011883,-8.949546
47.830138,-3.669694,-7.311854,-13.442875
47.863460,-1.331373,-4.831372,-13.790046
47.896596,-8.215098,-2.694471,-10.954911
47.930138,-7.789514,-5.364849,-6.874148
47.963412,-8.614346,-0.374556,-8.042859
47.996761,-2.231625,-0.520757,-5.618644
48.030163,10.775639,-0.090085,-2.010752
48.063424,20.889706,-11.755202,-2.912650
48.096635,20.297420,-14.434259,3.187395
48.130168,22.442102,-20.721807,0.749262
48.163420,22.359948,-15.984411,1.049895
48.196566,11.860101,-4.678736,-1.329727
48.230190,12.348087,-4.388878,-2.623540
48.263431,7.961903,-4.791567,-8.242633
48.296570,-1.822053,-3.681665,-11.361341
48.330208,-7.139166,-3.639466,-13.427761
48.363524,-15.266274,-4.581917,-10.634376
48.396928,-10.660115,-1.460066,0.718137
48.430373,-7.846528,-1.925755,-5.611910
48.463471,2.095450,-1.072790,-4.381545
48.496863,17.784915,-10.680017,-0.840544
48.530209,18.387377,-10.340926,-3.901641
48.563472,20.413393,-18.187753,-0.956967
48.596913,18.818798,-16.574153,-4.827631
48.630291,16.491551,-11.396657,-1.930394
48.663518,19.131103,-4.362242,-2.924622
48.697031,10.255031,0.256638,-7.104000
48.730432,5.382208,-6.053506,-9.833038
48.763525,-1.710120,-5.914039,-14.461345
48.796807,-13.396635,-6.594465,-10.404076
48.830457,-14.634182,-2.886912,-9.494396
48.863514,-7.005684,-3.967783,-5.405103
48.897147,-2.108469,-1.745735,-5.020820
48.930235,6.314034,-1.640985,-2.297019
48.963458,17.642454,-8.666721,-0.846979
48.996599,18.029282,-19.814821,-0.530185
49.030320,17.968078,-16.670224,1.421758
49.063628,20.433295,-21.987337,-2.131664
49.096581,13.794536,-10.179162,-1.642631
49.130260,15.970943,1.286181,-6.001430
49.163484,11.474023,-0.220274,-8.662531
49.196614,3.759031,-4.352066,-13.237864
49.230328,0.430074,-2.033049,-11.688162
49.263538,-9.283399,-5.384752,-9.580141
49.296939,-10.570927,-8.236497,-14.567442
49.330703,-8.770872,-5.695261,-12.018573
49.363639,-8.979325,-3.334943,-7.706761
49.397159,9.548866,-3.525887,-1.178588
49.430670,22.996380,-9.359568,1.525011
49.464688,21.155472,-13.933554,3.433408
49.496788,27.641297,-20.589074,1.110800
49.530718,23.417625,-14.304669,-1.864401
49.563642,15.001855,-3.316088,-3.665654
49.596987,6.800673,-4.627110,-6.761916
49.630681,4.486146,-9.120438,-8.314312
49.663764,-2.615459,-5.713517,-9.933598
49.696931,-9.500232,-1.133994,-6.636216
49.730677,-12.750926,-7.934219,-11.454868
49.763578,-12.765741,-3.776389,-12.992450
49.796593,-11.624563,1.954487,-4.145110
49.830398,-3.016503,-3.990828,-6.990421
49.863661,8.957477,-8.267474,-6.500939
49.896761,7.860295,-13.115007,-2.338919
49.930473,11.508590,-30.185526,2.125977
49.963578,14.838595,-18.517267,-2.164286
49.997040,7.618472,-10.796888,2.831544
50.030213,15.457368,-3.904783,0.669652
50.063413,8.878915,-3.791653,-4.604364
50.096600,9.520135,-5.902965,-7.302725
50.129934,12.267878,-7.697484,-4.088844
50.163407,6.743510,-10.381479,-1.953738
50.196643,6.220957,-10.473959,-2.258262
50.230176,7.027233,-7.673241,-1.834922
50.263426,1.328680,-2.380370,-4.142715
50.296988,-0.903544,-4.904099,-4.603316
50.330136,3.034609,-14.100406,-4.148402
50.363488,0.953974,-10.386567,-4.792016
50.396860,3.516460,-10.028322,-3.579010
50.430147,6.717023,-7.322029,-3.064239
50.464317,5.458526,-8.926202,-2.126576
50.497321,4.839752,-9.273373,-0.514323
50.530531,4.808028,-7.731004,0.714844
50.564176,4.715848,-8.783293,0.135726
50.597119,4.752510,-10.390757,-1.428342
50.630542,3.985590,-10.314140,-2.556201
50.664024,3.824126,-9.781262,-2.980887
50.697395,4.466393,-10.661611,-2.647034
50.730685,5.012889,-9.640747,-1.068151
50.764140,5.201290,-8.417715,-0.810915
50.797373,5.570459,-8.331670,0.012271
50.830366,4.913077,-6.697120,1.014430
50.863403,3.809012,-6.965281,-0.487237
50.896764,5.233612,-9.742953,0.587049
50.930165,5.993200,-11.142264,2.535550
50.963434,8.899116,-10.188141,1.585617
50.996635,9.181493,-7.473767,-0.359293
51.030199,7.916112,-7.073921,-2.575654
51.063464,7.993627,-9.683545,-7.776794
51.096806,9.114602,-9.206483,-6.849906
51.130343,5.207275,-13.026269,-9.390245
51.163538,7.733996,-9.750435,-8.232607
51.196889,8.200433,-10.629438,-7.992729
51.230580,8.010537,-10.718475,-7.685811
51.263611,8.480415,-11.633841,-6.262408
51.296803,6.788702,-11.388128,-5.423060
51.330380,5.675807,-10.441935,-3.181559
51.363691,3.267454,-9.635509,-0.148147
51.396950,1.261191,-8.024902,2.294775
51.430794,-0.483646,-9.759114,4.035421
51.463825,3.223908,-5.587368,4.055773
51.496780,6.910362,-4.721235,4.014022
51.530657,5.704090,-6.449012,3.434306
51.563536,3.457351,-5.876179,5.396873
51.597091,5.225083,-7.527340,3.028773
51.630689,7.103251,-9.695965,1.274958
51.663535,8.250863,-11.653145,0.641669
51.696603,9.382014,-15.733310,-2.412244
51.730794,10.788359,-16.732476,-4.172494
51.763789,14.311403,-18.252100,-7.146199
51.797184,15.431779,-18.137174,-9.798321
51.830759,12.902963,-19.460766,-11.807277
51.863623,10.258922,-18.118319,-10.901189
51.896811,5.992452,-15.601175,-11.330066
51.930872,2.016439,-11.150195,-12.348536
51.963517,-0.093377,-9.561137,-13.372692
51.996856,-2.783508,-11.904246,-15.312215
52.030159,-5.611162,-11.555129,-12.293916
52.063415,-3.737931,-6.917395,-6.358030
52.096744,-2.978044,-5.044015,-3.985441
52.130137,-1.827589,-3.467377,-2.399225
52.163414,0.873167,-1.267027,-6.744408
52.196858,2.558445,-4.125057,0.847578
52.230306,3.859741,-3.477552,2.285796
52.263438,6.562741,-6.851253,1.232759
52.296762,9.232970,-4.157380,0.445038
52.330270,5.891892,-4.423745,0.731155
52.363453,10.824123,-1.849437,2.640899
52.396974,12.149212,-1.199239,-1.403352
52.430417,18.017609,-9.469406,-4.131342
52.463748,23.280402,-10.480842,-5.858521
52.498222,19.817365,-16.223390,-7.847575
52.530602,19.351826,-15.309820,-4.281883
52.563477,15.239039,-13.611971,-7.629396
52.596819,18.781387,-5.602482,-5.466457
52.630393,19.791178,1.408589,-8.285281
52.663472,10.362325,-6.654921,-10.125889
52.696574,-3.283017,-5.353626,-9.115949
52.730312,-8.026548,-9.949161,-12.584972
52.763267,-16.681298,-8.322991,-5.988561
52.796685,-17.747953,-6.610926,-5.402859
52.830502,-11.853517,-2.499785,-1.403651
52.863499,-2.427059,2.033199,-1.624973
52.896741,8.354266,-2.566975,-9.660350
52.930735,24.695127,-3.979754,-3.726708
52.963554,18.680827,-18.013270,-1.001860
52.997080,21.006129,-24.003776,-3.374149
53.030669,22.897466,-13.942832,-0.074073
53.063555,15.832224,-6.204496,2.444567
53.096682,14.376497,-0.764077,-5.259650
53.130940,15.986057,-4.568450,-11.219779
53.163640,4.177732,-10.722516,-7.953672
53.197492,-6.789001,-6.720315,-10.251589
53.230471,-8.977380,-4.514129,-7.878552
53.263735,-12.473637,-8.049444,-11.342636
53.296895,-13.216764,-3.778185,-8.058273
53.330931,-4.803988,0.174783,-5.397771
53.363562,6.936998,-3.336140,-7.811362
53.401382,22.832970,-16.075094,-1.021463
53.430035,18.620222,-18.802187,0.169994
53.463492,26.411082,-18.824035,1.933088
53.496910,21.648695,-12.197247,4.756850
53.530299,10.268200,-1.955085,-1.347086
53.563644,12.589162,-5.451343,-6.934305
53.596772,9.376777,-6.313586,-12.278802
53.630782,-3.479348,-8.744086,-10.406470
53.663638,-6.937447,-5.608019,-11.115179
53.696617,-10.250243,-5.256807,-8.069646
53.730707,-10.346014,-7.166550,-5.964469
53.763580,-10.914657,-0.212792,-6.203897
53.797150,0.828423,2.934797,-5.940526
53.830713,13.868609,-4.809973,-6.624544
53.864997,22.132940,-16.212317,-2.101586
53.896957,21.363177,-21.701819,-1.939822
53.930891,21.162655,-15.819055,3.738530
53.964200,14.670845,-4.248363,4.146905
53.996931,11.018809,3.757684,-0.442045
54.030855,13.542986,-10.478298,-6.982190
54.063719,7.967589,-5.788937,-9.021973
54.096829,-2.698511,-4.475072,-10.755437
54.130174,-10.428467,-6.433001,-11.071184
54.163411,-14.859395,-6.421628,-15.310868
54.196801,-11.082108,-0.889478,-11.616782
54.230146,-3.173029,1.780601,-8.373421
54.263410,11.236839,-4.490037,-2.589272
54.296736,19.825296,-7.893815,-1.804245
54.330143,20.099442,-19.584670,4.771216
54.363417,23.612909,-21.453711,0.054620
54.396861,20.675717,-9.568918,3.232587
54.430210,12.925858,0.802086,-3.486531
54.463465,8.563018,-5.831586,-7.214735
54.496642,-0.653940,-7.795500,-12.467203
54.530087,-9.722901,-6.724355,-10.822926
54.563528,-11.945996,-3.913612,-6.849756
54.596663,-11.842294,-5.082473,-10.759926
54.630428,-6.436442,3.347662,-4.834215
54.664040,1.433879,4.667214,-4.786779
54.696840,12.047754,-0.489183,-4.400550
54.730411,20.438383,-11.819997,-1.573346
54.763587,18.959462,-16.348193,1.975586
54.797477,18.284572,-19.186919,0.300333
54.830409,15.775210,-14.337291,1.521270
54.863644,13.685296,-4.653447,-1.429389
54.898196,10.867370,0.031874,-4.688463
54.930395,5.928255,-7.605752,-11.356254
54.963633,0.403886,-8.777307,-13.956300
54.997720,-5.843108,-1.663132,-10.138759
55.030174,-13.937594,-5.393281,-10.040892
55.063213,-8.559726,-3.263862,-14.148741
55.096559,-4.056521,1.416969,-6.425070
55.129864,3.828316,0.830069,-4.976526
55.163519,22.394366,-13.736774,-1.584420
55.196938,18.896013,-21.317536,2.929560
55.230293,19.737605,-21.372006,3.939201
55.263620,23.481822,-17.524386,4.181772
55.296582,17.344665,-5.824253,2.294775
55.330106,12.053440,0.315747,-5.543074
55.363584,7.186004,-9.688034,-7.594978
55.396754,1.000064,-7.242419,-13.015046
55.430106,-9.889004,-2.904570,-12.984668
55.463528,-14.629843,-4.852322,-9.462821
55.496751,-11.158276,-5.935887,-3.332249
55.529889,-5.881716,-1.413378,-6.312837
55.563239,2.692526,-1.356513,-7.142009
55.596599,20.037191,-8.983216,0.278486
55.630290,21.706308,-16.218901,4.365534
55.663304,22.784785,-22.098672,5.348837
55.696605,21.756738,-17.397489,6.599853
55.730028,16.176552,-5.589164,0.624610
55.763950,16.047710,0.092629,-4.107400
55.796862,7.900250,-10.699321,-10.569730
55.830199,-4.803688,-6.977701,-12.382505
55.864531,-11.435864,-4.287719,-11.308966
55.896580,-15.248467,-5.758261,-10.486379
55.930613,-7.902195,-3.410662,-6.370001
55.964183,-7.084546,0.511031,-3.453310
55.996563,1.852729,4.696394,-1.902710
56.030183,21.699275,-10.676725,-2.804907
56.063358,20.993259,-20.238161,-1.687673
56.096819,20.168876,-22.743184,2.408054
56.130183,20.828054,-15.734507,2.863717
56.164049,15.749621,-1.188165,3.964940
56.196614,12.979730,4.344284,-3.737931
56.230346,10.700069,-9.919382,-10.280022
56.264113,5.870343,-8.687970,-10.213131
56.297060,-7.159816,-3.240368,-9.724397
56.330165,-14.392060,-6.214372,-10.987833
56.363720,-11.824786,-7.488881,-3.380285
56.397649,-7.178522,-3.120355,-7.483045
56.430304,4.128799,-4.508892,-7.170291
56.464371,18.435412,-7.649747,0.354803
56.496555,19.246028,-13.132366,4.959766
56.530146,24.125137,-23.527762,4.469685
56.563864,25.250900,-15.208961,2.221300
56.596559,20.687988,-4.325280,-2.123284
56.630206,10.856147,1.078028,-4.693701
56.664521,5.661142,-8.933834,-9.279658
56.696574,-0.734897,-6.245947,-10.141901
56.730289,-10.111374,-5.277009,-10.028172
56.766123,-13.469661,-7.532727,-8.893430
56.796863,-9.796376,-5.410640,0.383984
56.830208,-8.221683,-1.430287,-4.480908
56.863785,3.792850,0.719034,-6.815488
56.896798,17.812150,-4.372268,-2.294326
56.930187,18.217532,-12.925559,1.344991
56.967617,18.316895,-20.479984,2.729038
56.997514,21.068380,-19.594247,0.650797
57.030141,18.912325,-10.013657,-2.430950
57.063736,15.764286,0.163859,-5.552801
57.096929,3.250993,-8.149405,-13.559896
57.130695,-1.384646,-2.969964,-16.901572
57.163909,-8.578282,-4.950488,-12.446402
57.197316,-16.601538,-7.420644,-8.177538
57.231200,-10.699022,-4.118922,-0.432318
57.263622,-5.299605,-1.074586,-3.774145
57.297028,6.985033,-2.184338,-2.527020
57.331141,19.589609,-17.010213,1.143721
57.364748,19.092944,-13.031207,4.004595
57.397737,24.535308,-21.934364,2.333532
57.431003,23.101130,-15.042708,1.149557
57.463733,14.747761,-4.582965,-2.217110
57.497574,11.406085,-3.138312,-5.487108
57.530250,2.813437,-8.718198,-9.363159
57.563612,-3.610435,-6.299220,-13.745603
57.597639,-12.169862,-3.491469,-11.561115
57.630428,-12.890842,-6.322564,-8.892083
57.663821,-7.599617,-5.076637,-3.399588
57.696681,-3.407370,-1.528752,-4.461904
57.730275,7.404632,-6.932359,-1.360703
57.769143,23.967413,-11.276344,3.002735
57.797728,22.690959,-20.913051,1.545213
57.830529,24.974510,-21.254386,1.595194
57.864440,25.459054,-14.132130,-1.442558
57.896829,15.379404,2.262901,-1.382252
57.930279,3.933514,-1.961520,-5.502371
57.963984,0.976271,-10.283164,-13.399478
57.996866,-5.945913,-5.169565,-8.217343
58.030446,-18.880750,-3.080699,-1.947304
58.064224,-13.289042,-5.390289,-9.086469
58.096944,-4.906792,-2.218756,-8.162873
58.130886,-2.314677,0.527940,-5.754220
58.163950,5.058530,3.195924,-4.261233
58.196962,22.412623,-10.445976,1.768480
58.230305,20.525625,-17.198015,2.769292
58.263618,23.348041,-24.850456,1.471738
58.296593,16.594655,-14.634931,0.621168
58.330423,14.194980,-2.346850,-3.157466
58.363946,8.405594,-0.336098,-6.806659
58.397397,5.457628,-7.703320,-11.031379
58.430542,-1.811877,-5.028602,-12.980478
58.463619,-9.601241,-3.593376,-8.811575
58.497141,-16.245538,-5.550706,-10.429216
58.530532,-8.868739,-0.318141,-9.342957
58.563589,-4.196886,-0.375604,-6.485525
58.597212,12.550704,-7.657080,-2.569669
58.632328,24.332991,-15.253854,4.146307
58.664483,20.610473,-20.898086,4.442151
58.696571,23.192711,-21.982250,4.436764
58.730326,19.409139,-9.247186,1.218243
58.763531,16.695813,1.734811,-4.137777
58.797003,7.010323,-9.847404,-7.486487
58.830393,2.039184,-8.292913,-12.784895
58.863859,-2.406408,-7.889924,-11.559319
58.897017,-14.253940,-3.813950,-9.852641
58.930833,-15.186215,-2.110564,0.430822
58.963374,-11.538369,-5.306339,-8.387487
58.996923,-0.610543,-1.189362,-6.415043
59.030394,8.000062,-1.007546,-5.494590
59.066305,21.050872,-14.221168,0.967292
59.097771,21.768859,-15.288421,3.371156
59.130241,22.449734,-18.525049,0.612040
59.164046,24.647540,-17.568082,-3.468873
59.196825,15.712958,-2.054298,-3.650091
59.230454,8.438964,-1.207319,-7.373955
59.263816,2.478536,-8.379556,-7.910725
59.296662,-11.832268,-5.386548,-11.926543
59.331048,-9.472399,-1.992346,-9.340713
59.363528,-10.409912,-3.811555,-11.329318
59.396696,-5.265037,-3.990080,-10.884280
59.430851,-1.333319,-1.348582,-5.699451
59.463542,6.751291,0.808970,-2.425263
59.496582,21.067632,-11.313755,-1.166467
59.530778,20.435241,-11.593438,-0.838898
59.563652,20.036592,-22.207462,2.064025
59.596924,17.732839,-13.192821,3.494013
59.630914,16.462670,-9.213067,-2.449655
59.663529,16.456385,-1.904057,-3.892812
59.696770,1.246975,-5.949804,-6.819828
59.730960,-5.045811,-6.576209,-11.900505
59.763529,-5.321902,-1.878767,-12.320104
59.797109,-9.675165,-3.841035,-10.008868
59.831432,-9.536446,-3.269399,-6.203448
59.863697,-7.355998,-0.903394,-8.147460
59.897408,2.678309,-1.736756,-7.692695
59.931002,15.329124,-7.335348,-3.305463
59.965759,19.016476,-14.883188,-1.215250
59.997186,22.777602,-18.395159,0.599170
60.031213,22.438960,-16.752827,2.613364
60.063241,15.138479,-8.324487,2.177754
60.096621,16.697160,-0.929881,-1.103467
60.130880,10.868867,-1.519624,-6.674824
60.164234,-0.372910,-7.483195,-9.158897
60.196580,-6.452903,-4.570395,-9.594956
60.230411,-13.378379,-5.746140,-7.797445
60.264485,-11.407581,-5.474837,-7.460599
60.298038,-7.223864,-2.357625,-9.598398
60.330202,-1.639039,-0.543204,-7.305419
60.364092,15.014575,-5.022616,-1.881461
60.397689,19.159834,-9.032149,-2.761661
60.430204,18.857855,-14.604254,-0.867779
60.464706,22.545206,-18.243570,-0.418551
60.496704,22.321041,-13.177857,-0.754949
60.530188,14.247954,-4.166509,-0.922100
60.564473,9.589419,1.388986,-5.343750
60.596708,4.138376,-1.905104,-7.596475
60.630544,-0.008829,-5.868547,-10.683609
60.664435,-8.237844,-5.921072,-9.500232
60.696873,-14.780683,-8.008591,-9.132110
60.730602,-11.332161,-3.597267,-2.183590
60.764265,-4.646114,1.150006,-5.055687
60.796660,7.716339,-3.595321,-2.705694
60.832779,22.663724,-9.463719,-0.296443
60.866141,24.328202,-17.915254,0.032024
60.896580,24.058845,-19.568060,1.904356
60.930262,21.404927,-12.338809,0.470477
60.963722,17.319525,-5.273567,-2.515797
60.996592,11.040208,2.401470,-4.006989
61.030451,3.061096,-5.075739,-6.466072
61.063845,-5.412286,-4.905745,-7.769013
61.097323,-10.669692,-2.289986,-8.430884
61.130015,-12.590509,-7.605752,-7.311405
61.163631,-7.225959,-3.556564,-3.269399
61.197038,-5.117340,-0.150690,-3.476655
61.230235,4.243874,0.830518,-4.693701
61.263532,22.578427,-7.403435,-1.995489
61.296967,21.223111,-12.935436,-0.434862
61.330158,21.869120,-17.756183,1.597438
61.364143,20.609425,-15.577083,-0.613985
61.396951,16.521330,-9.339216,-2.448608
61.430185,15.158980,-3.077258,-3.736584
61.464321,6.288296,-4.216489,-4.646862
61.496757,0.279533,-7.398347,-9.051303
61.531363,-5.314270,-4.889583,-9.810891
61.563539,-11.985951,-4.685919,-8.840756
61.597262,-13.252529,-5.639893,-13.040036
61.631355,-6.278719,0.436209,-7.715590
61.663538,-2.767497,4.099169,-1.718500
61.696860,7.360338,-7.884537,1.182479
61.738032,23.470149,-18.709259,4.725724
61.763455,28.561751,-30.975192,0.963551
61.796769,28.040544,-22.840452,-2.106075
61.830539,19.179587,-10.931268,-4.243425
61.863750,12.895780,4.678138,-3.265658
61.897639,5.313821,-1.173949,-8.262685
61.930406,0.845034,-8.464104,-11.774805
61.963518,-7.146199,-2.694621,-8.347383
61.997791,-15.264628,-4.075825,-4.026742
62.030458,-11.470880,-4.607656,-4.513531
62.064005,-6.541492,1.435674,-6.461283
62.097426,-0.016161,1.757556,-5.779211
62.130341,10.771449,-2.826755,-2.379173
62.164622,23.671868,-10.832653,-2.708687
62.197090,21.566990,-19.281943,3.381781
62.230148,18.018657,-17.202355,3.200863
62.263477,18.004590,-13.348749,-0.185707
62.297065,14.469725,-3.286608,-3.052866
62.330960,8.403649,-1.915879,-6.536703
62.363785,2.021377,-5.567915,-10.087730
62.397586,-3.716383,-5.366196,-11.453222
62.430514,-8.803345,-1.974090,-10.804969
62.463639,-11.790517,-7.877504,-8.482510
62.496597,-6.562891,-5.464511,-7.826925
62.530181,-4.673948,-1.756659,-5.917630
62.563778,9.282801,-4.488839,-4.307772
62.598937,21.792652,-8.232756,-2.571165
62.630761,20.913051,-14.875706,1.138633
62.664019,24.784014,-21.525839,3.536063
62.696572,23.904862,-14.314395,1.281093
62.730029,19.200687,-4.716746,-3.069626
62.763475,10.679718,-3.680319,-5.104171
62.796896,-0.478109,-6.451706,-8.503909
62.830188,-8.025950,-5.568364,-11.703575
62.863633,-9.412092,-3.314292,-9.438729
62.897625,-11.690556,-5.395077,-8.344240
62.930231,-9.548866,-3.447773,-0.617128
62.963641,-4.795458,0.037111,-1.597139
62.997758,5.506262,-0.407478,-5.210118
63.032152,21.324718,-7.540807,-1.538629
63.063983,20.854391,-13.057544,0.172987
63.097039,20.628579,-21.325467,3.952818
63.132049,18.670352,-20.661651,-1.263435
63.163629,19.576889,-8.531743,-0.466287
63.197789,12.270871,0.420347,-2.992560
63.230446,-0.554427,-4.029286,-10.093566
63.264017,-0.480204,-4.876864,-13.310441
63.297609,-7.725467,-2.472850,-12.568810
63.329929,-13.021181,-2.032899,-4.707767
63.363471,-9.774827,-4.562613,-0.361388
63.396989,-6.753087,-3.107485,-6.224398
63.430155,-0.103703,-0.705118,-5.782652
63.463980,14.899948,-4.495723,-1.567360
63.500160,18.702375,-5.526464,-1.320898
63.530193,20.962283,-22.060064,3.806767
63.563602,18.867731,-21.737733,3.386420
63.597274,22.176486,-16.190768,-4.050386
63.630535,21.864181,-4.636387,-2.729637
63.663970,8.380005,-3.555367,-6.334835
63.696848,1.103916,-7.163408,-6.687094
63.730922,-2.257962,-5.337614,-11.134932
63.763602,-9.150367,-2.804159,-10.760974
63.797113,-11.590146,-3.359335,-9.586127
63.831158,-8.179633,-2.030655,-5.076487
63.863629,-5.108361,-1.806490,-4.723480
63.897289,4.182820,-3.436999,-9.739810
63.930874,22.954629,-7.505043,-4.077321
63.963372,19.372926,-14.192885,-2.354033
63.997854,21.666204,-19.243035,1.662383
64.030884,21.122102,-13.413844,1.404698
64.063471,15.650857,-7.873913,1.767134
64.097318,12.326090,1.026850,2.168177
64.130464,6.842873,-1.635897,-5.940226
64.163524,5.387745,-6.715078,-8.316856
64.197677,1.100923,-6.215121,-6.547328
64.230337,-13.670332,-5.914189,-6.894948
64.264168,-13.735277,-4.849479,-9.024966
64.297697,-5.649470,0.004639,-2.244644
64.330655,-0.506541,1.968104,-5.606672
64.364277,11.277541,-2.940634,-3.942493
64.398620,23.141833,-6.298172,-4.901854
64.430699,23.862064,-20.238909,-0.441746
64.463613,18.538516,-19.081271,6.451706
64.497042,20.096449,-15.025798,2.431698
64.531393,21.467179,-3.165996,-2.263798
64.563996,14.674137,2.284898,-2.760463
64.597039,2.122236,-5.534993,-4.551839
64.630505,-2.898434,-5.702294,-9.456836
64.664626,-6.380476,-5.128114,-9.393686
64.697037,-10.320425,-4.516523,-5.402410
64.731004,-8.243381,-3.550728,-3.939201
64.764261,-0.540660,-1.726880,-3.410512
64.796930,-2.218457,-0.800739,-3.800781
64.831196,8.509895,-2.111462,-4.326776
64.864031,18.410721,2.218008,-3.035507
64.897513,19.740598,-3.423531,-5.970754
64.930523,24.782817,-15.617187,-2.177006
64.964600,16.651369,-21.424381,-0.647056
64.996652,12.925709,-24.102840,-0.763179
65.030844,16.101431,-3.510175,-0.615631
65.063726,9.127322,7.833210,-2.443071
65.097580,5.858072,1.047201,-4.618730
65.130908,8.344091,-6.045725,-8.780749
65.164200,-0.595130,-4.529243,-7.057461
65.198230,-14.490226,-8.434026,-5.916433
65.230559,-12.779059,-2.944075,-7.947387
65.263376,-8.149405,-0.558318,-0.929133
65.297124,-5.015433,-0.111484,-3.857945
65.330531,9.216359,-3.981400,-3.762473
65.365055,19.216399,-1.766984,-1.738402
65.397127,18.527593,-11.311660,-0.319488
65.430209,23.599890,-17.913308,-0.725918
65.464130,22.879509,-19.487552,-1.687524
65.497179,16.927760,-15.255051,-0.653790
65.530397,9.504572,-1.520522,-0.547992
65.564497,4.018661,0.872269,-6.519345
65.596855,5.348538,-3.090725,-6.407711
65.630146,-0.428278,-3.564645,-8.972591
65.663728,-7.342979,-1.268523,-3.490871
65.697155,-9.061928,-7.526741,-7.700776
65.730467,-4.922654,-2.031104,-10.869914
65.763839,-6.569026,8.135189,-0.733849
65.797789,-3.555067,1.102420,-6.288146
65.830287,12.335367,-8.389582,-2.934349
65.863733,11.143910,-14.351058,0.582111
65.897033,9.120588,-16.677706,1.214652
65.930837,16.652866,-24.824268,2.449056
65.963801,15.488195,-21.650342,2.040382
65.996975,16.948710,-14.436055,3.385971
66.030522,13.193420,-7.664412,1.632455
66.063954,12.241242,-5.934390,-0.040404
66.097290,11.919659,-6.736177,-1.313416
66.130596,7.450124,-4.810422,-0.396105
66.163832,4.278890,-8.942064,-0.474817
66.197375,3.893111,-11.969790,-1.935332
66.230321,5.165675,-10.729848,-2.774530
66.264316,4.399802,-10.289748,-0.739984
66.296965,6.288595,-7.607398,-2.160545
66.330290,3.459745,-5.010345,0.382637
66.364058,4.009982,-6.478342,0.731754
66.397111,7.788616,-7.512824,-2.499935
66.430316,2.675466,-4.112039,4.164264
66.464200,5.415429,-6.064430,3.634229
66.497051,9.074648,-5.517485,2.394437
66.530312,5.660394,-1.181730,2.667236
66.564590,3.247851,-3.392855,0.726666
66.596988,3.165547,-4.418058,0.251699
66.630779,3.011415,-5.512846,-0.520458
66.664277,2.472550,-4.088844,-3.943690
66.696594,4.027939,-2.728739,-5.277458
66.730274,15.083261,-8.805440,-1.562123
66.764129,10.452859,-10.929322,-2.626084
66.796660,9.588372,-9.162039,0.296592
66.830383,10.009317,-9.956793,-1.629462
66.864231,10.562697,-15.208662,-2.197507
66.896648,8.501515,-15.535631,-0.531083
66.930349,8.070394,-12.321151,1.458869
66.964191,7.288360,-13.083432,-2.087669
66.996626,7.927335,-13.652674,-1.611804
67.030313,8.216745,-10.108980,0.905938
67.064205,6.192824,-8.895824,0.562957
67.096952,7.253643,-8.615393,-0.967891
67.130257,5.932146,-6.334835,0.273847
67.164227,3.332848,-4.991939,1.763392
67.196660,2.957543,-5.438923,-0.206208
67.230140,3.462738,-5.186026,-1.226623
67.263513,3.088481,-4.862049,-0.588396
67.296635,3.003484,-5.126767,-0.944696
67.330145,3.224506,-5.057483,-1.300696
67.363792,3.018298,-5.936785,-1.621082
67.397431,3.560305,-7.846378,-1.755162
67.430203,4.106053,-11.861299,-1.795566
67.464237,4.762387,-16.109512,-1.744388
67.500040,5.078133,-20.281857,-1.975137
67.530307,6.548824,-17.011261,0.254992
67.564430,4.015220,-14.580610,2.257214
67.597481,1.128757,-14.870319,0.774702
67.630295,-1.304886,-20.066521,-0.817499
67.664354,0.855359,-14.893364,-1.521869
67.696923,2.654666,-13.595660,-1.161678
67.730227,1.439715,-11.360593,-1.558382
67.763757,0.381590,-11.737245,-1.870686
67.796600,0.771260,-11.545851,-1.441361
67.830293,4.206463,-12.899072,-1.068151
67.864530,3.369660,-10.580953,0.660075
67.897111,3.670741,-9.542282,-0.044145
67.930296,2.827803,-7.503696,0.109389
67.964259,4.908738,-6.147183,-2.034546
67.997075,6.788103,-5.442813,-3.837593
68.030805,6.828208,-3.514514,-5.360210
68.064415,7.000596,-1.806190,-6.940290
68.097015,5.585872,0.067639,-7.089335
68.131013,4.574136,1.063512,-6.641902
68.164278,3.870066,1.634849,-6.731538
68.196807,4.291311,1.239642,-6.623795
68.230623,1.683932,2.677861,-5.343151
68.263920,3.136217,3.133673,-7.485888
68.296856,5.270275,3.020992,-7.866131
68.330506,4.205116,4.620525,-6.563789
68.364658,4.864443,4.851424,-6.157957
68.396588,5.669223,9.134056,-4.707767
68.431061,5.745840,9.341611,-3.776988
68.464687,5.782353,8.672258,-5.193957
68.496939,5.550107,9.046066,-6.001281
68.530966,5.274914,10.066930,-8.000211
68.563853,3.765615,9.308390,-7.628498
68.596941,1.509149,8.823098,-4.610050
68.631438,1.058574,9.239554,-2.898434
68.663541,-0.453119,9.511156,-3.486531
68.697085,-0.369917,9.899629,-3.285112
68.731480,-0.553978,10.587837,-1.755461
68.764128,0.330561,10.604896,-0.194835
68.797498,-0.251849,10.220763,0.051627
68.831619,-0.706015,9.498137,0.869276
68.863410,-0.888580,9.647181,1.525759
68.896904,-1.129206,10.641858,2.413142
68.931241,-0.960558,10.715183,3.402731
68.963903,-2.338620,11.031678,2.799820
68.997307,-2.010453,9.082130,2.732929
69.031318,-0.655735,7.064793,3.835199
69.063901,-0.880798,6.600301,5.128114
69.097208,-2.039633,3.886826,4.738444
69.131404,-2.585232,2.763007,4.348624
69.163872,-4.597630,2.083179,6.082537
69.197768,-6.436592,1.150754,8.065156
69.231288,-7.932124,4.446191,10.124542
69.264100,-7.805825,5.234211,9.162189
69.297291,-5.577791,1.586365,4.336952
69.331316,-2.426909,1.847043,4.951386
69.363757,-1.175445,3.759480,7.583156
69.397324,2.358971,0.095323,3.839539
69.431159,3.710397,1.047800,4.423446
69.463776,1.417568,1.120227,5.703491
69.497188,2.165184,1.107956,7.048482
69.531321,2.710782,2.750587,8.002905
69.563713,1.494634,2.039184,6.954207
69.596732,3.393303,-0.104151,7.817048
69.630935,3.191734,2.197507,7.212640
69.663759,3.515113,-0.513425,7.921349
69.697316,6.258667,0.138270,6.279467
69.731019,5.621637,-0.512527,4.770617
69.763721,6.712683,0.643465,5.903564
69.797244,8.083113,0.178823,3.127238
69.831560,9.165032,0.563406,4.265871
69.863811,9.947365,0.556223,2.029158
69.897268,10.900441,0.127346,1.795117
69.931321,12.112848,0.843837,-0.137971
69.964487,12.466604,-0.313951,-2.483474
69.997056,12.477977,0.047886,-1.464406
70.032097,12.115093,0.123755,-2.515498
70.063731,12.867797,0.150690,-2.867309
70.097005,12.924362,1.825494,-1.601329
70.131158,11.039160,1.798858,-4.047542
70.163608,11.055920,3.090127,-3.490571
70.197214,10.540700,3.102697,-5.946811
70.231790,10.243209,1.318654,-8.058422
70.263826,9.557545,0.696887,-7.935266
70.297265,7.961603,-2.164436,-9.692972
70.331322,8.517377,-1.308328,-7.599018
70.363556,7.296440,0.379644,-5.764845
70.396717,7.500254,-0.404784,-7.373656
70.431406,6.778676,-0.483197,-7.231495
70.463534,6.180553,0.157724,-7.002991
70.497014,6.200904,-0.997969,-7.568940
70.531037,6.259564,0.662170,-6.734232
70.563609,6.364315,0.247659,-7.400592
70.597193,5.251570,0.375155,-7.888129
70.631066,5.017827,0.848476,-7.748063
70.664370,4.532386,0.400145,-8.359055
70.696620,3.593376,0.648852,-8.445848
70.730740,4.066547,0.396255,-8.575588
70.763495,3.264760,0.133631,-8.938472
70.796718,2.903672,0.316644,-9.045018
70.831005,3.347513,0.323079,-9.379919
70.863548,2.683996,0.491727,-9.328741
70.897054,2.810594,1.121424,-8.898817
70.930689,2.941232,0.928684,-9.169372
70.963546,2.437534,-0.019454,-9.913546
70.997556,3.031766,-0.920454,-10.372800
71.029923,2.388002,0.414810,-9.541384
71.063573,1.812775,-0.046988,-9.530310
71.096863,2.155307,-1.281093,-9.664989
71.131419,1.863354,-0.672196,-8.510494
71.164200,2.786352,-1.142374,-9.995251
71.196673,2.131664,-1.968104,-10.373399
71.231167,2.093206,-1.946555,-9.916838
71.263926,2.011500,-2.632968,-10.279423
71.296921,1.769677,-2.276219,-9.188077
71.331008,1.842404,-0.697336,-8.718647
71.364773,1.662683,-0.076617,-8.715953
71.397987,2.521933,-0.329214,-9.393836
71.431765,2.224592,-0.501154,-9.902173
71.464094,2.203343,-1.419812,-9.658704
71.497124,1.830433,-2.080336,-9.592711
71.530976,1.739899,-2.023921,-9.753578
71.563638,1.999379,-1.100923,-9.376028
71.597752,1.513638,-0.964000,-9.364506
71.630817,1.938924,-1.291269,-9.824808
71.664272,2.194065,-0.495468,-9.216509
71.697897,2.078541,-0.541109,-9.055194
71.730596,2.174162,-0.181667,-9.009852
71.764106,1.314913,0.211445,-9.312131
71.798221,1.314464,-0.119864,-9.544227
71.830545,1.712514,0.075420,-9.575951
71.863625,1.514237,-0.388922,-10.360080
71.898559,1.201483,-0.977767,-10.100300
71.930337,1.514836,0.561610,-9.268286
71.964022,0.971183,0.669802,-9.804157
71.998262,0.675638,1.004104,-9.732628
72.030272,0.609645,0.461499,-9.921926
72.063596,0.705118,-0.046988,-9.239255
72.097367,0.920154,0.519111,-9.672322
72.130370,0.961905,-0.017658,-9.647930
72.163526,1.166167,-0.042798,-9.858328
72.198019,1.068600,0.313352,-9.719010
72.231662,1.117534,0.278037,-9.422119
72.264263,2.197357,0.530335,-10.226300
72.297934,1.734511,0.491427,-9.453244
72.331509,1.563470,0.703621,-9.048909
72.363524,0.667408,0.289260,-9.768542
72.398126,0.590042,0.774702,-9.197654
72.431669,1.156740,0.922698,-9.566075
72.464406,0.900252,0.567296,-9.853838
72.497796,1.742143,0.957116,-9.345202
72.531596,1.983817,0.586750,-9.669029
72.563549,1.551199,0.165206,-9.777820
72.597130,1.694557,0.403737,-9.459529
72.630057,1.398114,0.387875,-9.525821
72.665622,1.256851,0.476014,-9.618300
72.697034,1.644426,0.240027,-9.863565
72.730538,1.417119,-0.167301,-9.991360
72.764321,1.336012,0.191543,-9.550811
72.797578,1.654452,0.303626,-9.487213
72.831530,1.591004,-0.079311,-9.789193
72.863552,1.816216,-0.036663,-9.346399
72.898609,2.000277,0.137971,-9.239255
72.930723,1.482812,-0.409124,-9.968465
72.963512,1.754115,-0.156826,-9.529712
72.997282,1.910641,-0.115225,-9.195110
73.030220,1.294711,-0.367523,-9.636856
73.064178,1.395869,-0.105648,-9.389047
73.099469,1.555688,-0.231348,-10.221810
