time_tick,acc_X_value,acc_Y_value,acc_Z_value
0.004244,-7.283122,2.393689,-5.954442
0.033349,-6.906770,2.140493,-6.390801
0.066601,-7.097715,2.235965,-6.369103
0.100308,-7.268457,2.384261,-6.274080
0.133158,-7.085594,2.477638,-6.299968
0.166602,-6.993114,2.420026,-6.265700
0.199687,-6.970967,2.382465,-6.205094
0.232704,-6.917395,2.390696,-6.242804
0.266612,-6.780920,2.089165,-6.365362
0.299687,-7.188847,2.371541,-6.384516
0.333039,-7.256336,2.292829,-6.264054
0.366511,-6.853647,2.185236,-6.442428
0.399725,-7.189895,2.535550,-6.295479
0.433168,-6.839431,2.375282,-6.053805
0.467097,-6.320918,3.005728,-5.529756
0.499907,-6.263156,3.526336,-5.157893
0.533177,-7.457905,3.262216,-4.958269
0.566997,-5.677902,5.048354,-5.177347
0.599320,-6.717622,4.068792,-4.478065
0.633185,-8.699343,3.447624,-4.124908
0.667027,-7.506090,3.549830,-5.830837
0.699898,-6.893452,3.778784,-6.833894
0.733307,-8.081168,2.843515,-6.846614
0.766937,-7.551731,6.569325,-7.850119
0.799862,-8.471437,5.929602,-6.246994
0.833074,-9.050405,5.391336,-5.452091
0.867156,-9.492750,4.104107,-5.445058
0.900006,-10.060346,2.577749,-5.982126
0.933255,-10.944735,2.399674,-8.049893
0.966937,-10.954462,0.521955,-9.627429
0.999919,-7.936014,-0.699730,-12.443709
1.033298,-6.435395,-2.368848,-14.986143
1.067079,-6.222154,-4.821496,-17.559253
1.099878,-3.251592,-1.447945,-22.713704
1.133105,1.618688,-0.001796,-20.504226
1.166992,4.094680,-3.206699,-13.856189
1.199762,4.324083,0.613686,-9.319912
1.232881,1.364594,8.930990,-4.987001
1.266576,10.346164,17.316981,3.736285
1.299866,2.687887,15.349476,4.015070
1.333308,-3.447474,14.581957,6.638460
1.366956,-6.101841,7.890673,5.700199
1.400212,-9.486465,14.605301,3.186198
1.433211,-12.832032,11.062654,4.920859
1.467518,-22.378953,1.174996,2.470605
1.503995,-30.421663,2.360318,7.300780
1.533166,-22.093434,3.427572,0.517765
1.566932,-18.002944,10.245454,-1.089999
1.599783,-10.073514,12.364398,-4.076573
1.633318,-7.835604,11.032426,0.344478
1.667037,-7.110434,13.409804,5.282995
1.699938,-7.179869,8.818160,8.506004
1.733226,-13.714626,0.120912,7.479304
1.766982,-18.962904,8.016373,6.160501
1.799903,-15.711462,7.355849,0.469131
1.833298,-11.071932,2.575355,-12.807042
1.867031,-9.683545,11.374061,-17.310846
1.900194,-8.579778,32.078510,-15.781345
1.933107,4.153490,27.756372,-13.647437
1.966931,0.561161,18.837952,-10.403028
1.999786,-4.275748,12.417521,-3.856748
2.033298,-6.548076,12.807341,3.815297
2.067026,-4.428084,7.393708,9.430947
2.099899,0.477211,5.045062,5.098634
2.133225,-5.230769,8.981420,7.004936
2.166949,-2.530462,6.781070,3.174825
2.200373,-3.793149,8.619434,1.514087
2.233118,-8.105560,-1.540873,3.518704
2.266658,-13.168879,-0.265467,4.942557
2.300407,-18.118319,2.839026,4.951087
2.333244,-14.936012,4.244323,5.306638
2.366933,-13.604639,13.669285,1.262837
2.400147,-8.663279,14.496960,3.520350
2.433283,-5.268629,11.154685,4.556328
2.467025,-6.977551,13.415640,5.825450
2.500205,-9.508313,4.701183,7.918506
2.533268,-17.624946,0.569092,7.492473
2.566933,-16.927460,6.379279,2.534353
2.600015,-12.466006,2.649428,-3.902838
2.633255,-10.303815,4.373315,-13.945376
2.667134,-13.411899,18.809370,-15.912582
2.699661,-5.954442,24.631678,-14.754046
2.733034,-0.886485,24.476947,-16.796523
2.766423,-5.476932,12.370683,-5.756166
2.799674,-8.871582,13.055300,0.823335
2.833043,-6.191627,5.676556,9.848302
2.866470,4.601072,8.321644,5.931996
2.899745,1.642930,5.831137,7.941701
2.933324,-1.638740,9.195110,4.142865
2.966514,-3.025032,4.952433,6.816087
2.999706,-10.969726,0.407478,-0.479157
3.033212,-14.585399,1.219291,2.755974
3.066583,-16.447705,3.004681,2.227884
3.099761,-14.706759,-0.837851,2.097994
3.133325,-12.918227,9.226386,2.462524
3.166712,-7.709156,11.061457,3.427721
3.199972,-7.816300,13.303557,6.368355
3.233396,-8.812772,11.621870,5.852087
3.267131,-13.942682,4.366581,8.405444
3.299886,-17.659215,1.973342,7.817497
3.333593,-14.348963,7.494717,1.547757
3.367235,-9.673070,3.117063,-7.643612
3.399890,-13.189080,6.490164,-15.251310
3.433435,-11.427035,25.326171,-16.130163
3.466879,-0.757193,27.621245,-15.695600
3.499842,1.607913,25.504695,-16.294620
3.533296,-5.928105,17.086232,-3.950723
3.566705,-4.658086,7.709605,5.898775
3.599888,-3.472165,6.650581,9.781711
3.633761,-0.994677,3.724164,8.281091
3.666730,-0.019603,5.072148,5.896980
3.700147,-3.022039,4.456367,5.864058
3.733800,-2.666338,-1.783594,3.983495
3.766657,-10.938151,-2.165483,-1.882508
3.799888,-14.606798,-0.510731,3.253836
3.833627,-14.514468,3.028624,3.910021
3.866834,-14.094420,6.720315,2.103830
3.899893,-12.701693,12.200389,1.486254
3.933656,-7.126147,16.279507,7.195880
3.966456,-7.616527,8.541769,9.553804
3.999890,-11.443196,15.236046,7.619520
4.033477,-15.741241,-1.317606,3.850313
4.066536,-18.432869,6.771194,-0.143358
4.099870,-13.110817,5.263990,-7.361535
4.133598,-9.611417,5.119435,-14.641964
4.166692,-11.297893,11.760888,-16.137795
4.200943,-8.321345,23.012541,-15.738847
4.233643,-2.343708,22.637237,-14.618320
4.266048,-7.344476,17.775637,-7.944394
4.299893,-9.344903,11.297294,3.269698
4.333505,-5.469749,8.035677,8.205671
4.366615,-2.251079,1.184125,7.548290
4.399780,-0.032024,5.603979,4.848431
4.433310,-0.089486,4.311363,6.464426
4.466730,-0.734148,4.033476,2.398028
4.499889,-3.784919,1.721792,-0.005986
4.533623,-12.474535,-0.766920,4.271408
4.566456,-15.100919,3.059899,3.496108
4.599889,-14.295391,5.916134,4.335455
4.633601,-14.542002,11.726171,3.271793
4.666538,-11.521609,16.333977,2.523579
4.699971,-9.332333,9.627129,7.411965
4.733449,-11.234594,15.462306,8.704431
4.766402,-13.354585,3.888173,0.257087
4.800096,-20.634865,0.048634,-1.121574
4.833519,-14.982401,6.178308,-7.727711
4.866465,-8.878017,1.507054,-14.096216
4.899763,-9.273523,7.102204,-14.881841
4.933301,-5.845802,22.050187,-17.537854
4.966590,-5.454036,20.989668,-14.410466
4.999768,-6.762514,17.228692,-11.571739
5.033617,-5.549808,12.355120,3.269848
5.066075,-7.088137,7.126596,5.432189
5.099732,-6.686346,5.623432,6.441530
5.133330,-3.171533,6.050364,5.416775
5.166782,-3.464534,5.302149,8.482959
5.199892,1.477724,1.159134,4.746375
5.233687,-2.433793,2.894992,4.544357
5.266467,-5.880519,-0.808371,1.013232
5.299760,-12.260546,-1.560626,-1.133096
5.333304,-19.487253,-0.132733,3.475457
5.366587,-14.827970,8.376264,0.027085
5.399900,-16.209474,10.488025,3.423531
5.433756,-8.737352,18.176231,3.976312
5.466067,-5.839966,14.383530,8.353069
5.499530,-9.798919,11.120416,7.431867
5.533607,-15.155239,-0.416456,2.548719
5.567422,-17.739124,4.453673,0.083351
5.599891,-8.849734,6.511114,-6.605838
5.633653,-11.642521,4.539718,-15.078323
5.667175,-10.571526,8.950294,-16.459976
5.699764,-13.446167,23.946313,-16.320808
5.733429,-1.871584,23.968610,-15.095532
5.766068,-3.520949,20.455742,-9.548118
5.799731,-9.824658,12.383253,3.058552
5.833321,-3.200114,7.418399,8.008591
5.867278,1.681987,6.313735,8.586063
5.899983,2.735473,6.731688,8.401554
5.933740,-0.322780,5.936934,6.480737
5.966631,-2.088267,5.484863,3.415750
5.999767,-3.691542,1.329727,0.884240
6.033608,-14.045337,-4.668261,1.446449
6.066803,-15.998926,-1.646821,0.929432
6.099896,-14.942746,0.661422,0.576125
6.133753,-18.650150,7.342082,0.176429
6.166091,-13.163342,10.435201,5.038328
6.199740,-8.404098,12.111502,8.988603
6.233327,-3.981700,10.681214,3.626298
6.267218,-13.463526,7.592584,4.847234
6.300253,-15.387036,1.289473,5.641539
6.333564,-12.878721,6.720614,-2.520436
6.366541,-10.425175,3.635575,-7.876008
6.400241,-9.959636,6.478043,-13.293082
6.433605,-8.316107,19.771724,-16.478382
6.466901,-6.523235,20.358474,-14.737586
6.499968,-6.318224,22.966152,-16.996895
6.533683,-9.506816,11.021203,-3.371007
6.566445,-8.372224,7.552629,5.197848
6.600078,-3.441638,7.114175,7.078860
6.633579,-0.350015,3.968232,5.939329
6.666605,-3.199516,8.156139,7.437703
6.700104,2.765252,2.766748,7.743274
6.733681,-0.339390,0.915665,2.576702
6.766521,-7.027083,-1.565415,-0.851917
6.800111,-12.848044,-1.586664,2.084826
6.833634,-18.040804,-1.810829,4.491683
6.866864,-15.780597,3.723266,0.779490
6.900088,-16.240150,7.151586,2.715720
6.933193,-13.723306,11.584609,4.153939
6.966550,-4.860403,14.416601,4.596283
7.000254,-6.703106,9.552009,7.678778
7.033100,-12.857172,8.798107,5.712919
7.066675,-16.751031,0.312006,4.990443
7.100299,-17.825617,5.986017,-1.831181
7.133113,-9.392340,3.944438,-7.323675
7.166538,-9.701502,4.244024,-11.777349
7.199522,-5.822757,14.426628,-14.671743
7.233319,-5.385201,23.091253,-13.559147
7.266629,-6.786457,19.817215,-12.587067
7.299988,-6.272733,12.834277,-4.211701
7.333152,-9.343107,8.187115,2.882273
7.366639,-9.321558,9.236412,6.519794
7.400247,-5.389540,4.348624,7.822735
7.432987,-1.932339,6.389754,7.241222
7.466828,-0.269058,4.740988,7.384281
7.500248,0.671747,2.406857,3.761724
7.533192,-1.208068,1.633802,2.628628
7.566645,-3.644704,-1.358758,-0.003143
7.600239,-16.631616,0.825281,2.957094
7.633201,-15.388084,2.691628,2.970562
7.666101,-13.775531,8.811126,0.327419
7.699909,-16.220398,16.994800,3.041942
7.733190,-9.024368,15.511988,5.706185
7.766928,-8.519921,11.627407,8.330324
7.799742,-9.706889,14.527038,5.746588
7.833291,-18.513676,1.408739,2.672773
7.867190,-18.100960,3.116165,-1.659241
7.899822,-8.196842,4.598677,-8.009190
7.933307,-9.520434,6.131620,-11.553932
7.966954,-4.582366,9.196457,-13.951062
7.999933,-5.584076,18.943001,-14.734742
8.033029,-4.883448,18.399349,-13.660755
8.067099,-6.228439,17.011859,-10.272090
8.099857,-10.447173,9.832290,1.622578
8.133150,-7.442492,4.174889,6.448863
8.166982,-6.861877,4.868035,3.403030
8.199383,-3.049125,7.672044,6.316878
8.232922,-1.494634,4.779147,7.587945
8.266768,1.243683,2.317221,4.507545
8.299614,-1.509448,3.648295,4.005493
8.333227,-7.467782,0.622365,0.703322
8.367037,-12.264287,0.115375,2.466265
8.399304,-16.654512,0.743277,2.993009
8.433166,-13.948518,5.268030,0.364530
8.467342,-15.594740,8.156139,1.903159
8.499756,-12.820360,12.698700,5.988112
8.533324,-6.171724,12.512994,7.160265
8.567017,-8.828186,12.078879,7.974922
8.599791,-18.604659,5.556692,3.834152
8.633300,-19.902063,-1.823848,2.227884
8.667121,-8.136686,5.313522,-4.759095
8.699529,-9.071505,5.407647,-12.752422
8.733365,-5.828892,9.123581,-13.155411
8.767021,-4.930137,17.981845,-13.810099
8.799791,-1.499722,16.926114,-12.958481
8.833320,-6.541941,13.543285,-11.601967
8.868065,-14.756141,5.869595,1.689918
8.899831,-11.185062,4.251955,5.134998
8.933490,-8.083712,3.870216,3.887125
8.967849,-3.874705,5.769933,6.233078
8.999797,-5.092798,5.296911,6.933856
9.033713,-1.257150,3.539205,7.227754
9.067615,2.355230,2.257214,4.499015
9.099793,-2.239556,1.026401,1.279746
9.133575,-8.732115,-0.715892,-1.547757
9.167974,-15.422651,-1.478472,3.299028
9.199794,-16.421967,1.915579,1.145217
9.233822,-16.118491,3.968830,1.281991
9.267675,-17.146089,14.580461,2.664842
9.299785,-8.119028,15.013228,4.982512
9.333550,-5.501922,12.474386,6.199857
9.367586,-10.981997,9.679205,5.786244
9.399790,-12.345992,-1.705630,2.431997
9.433716,-17.701713,1.917076,2.130167
9.467259,-12.049400,7.694790,-3.826221
9.499375,-8.979175,5.499827,-12.470495
9.533430,-8.047498,7.972078,-14.167446
9.566657,-10.356788,18.120863,-16.599892
9.599841,-5.735814,17.397489,-14.623258
9.633639,-6.767004,18.408626,-11.828826
9.666508,-11.537022,9.730832,-2.403565
9.700267,-6.798429,5.514792,8.270167
9.733264,-0.359891,5.907155,4.361643
9.766891,-1.016674,5.749432,4.202423
9.800265,-3.291696,7.674887,6.704902
9.833369,0.919855,4.781840,6.396338
9.867144,-0.730856,1.019817,3.044486
9.900046,-5.900870,-0.997670,-1.718949
9.933242,-12.560281,-1.642631,0.395955
9.967131,-17.787459,1.936978,3.607293
10.000040,-14.338937,5.602333,-1.848539
10.033024,-16.730530,8.922012,1.908397
10.067639,-10.541897,15.938470,4.591345
10.099742,-6.648786,12.929749,10.446275
10.133252,-5.631962,10.633329,7.801785
10.167319,-11.582514,2.397579,4.980865
10.199838,-16.686236,1.708474,2.526123
10.233773,-13.832246,4.209157,-2.347150
10.266698,-8.523662,3.043139,-8.555835
10.299920,-9.685640,9.160393,-12.448946
10.333571,-6.817882,17.727152,-14.783077
10.367127,-10.554916,19.719349,-13.705049
10.399759,-9.435886,22.287372,-12.346291
10.433770,-8.562270,15.442404,-7.636878
10.466440,-9.197654,5.680895,1.825644
10.499762,-6.664947,5.368141,5.609516
10.533682,-1.825045,4.728418,4.723779
10.566036,2.012398,7.280578,2.126127
10.599727,-0.206208,8.908394,6.181600
10.633492,-1.039420,3.754542,6.333638
10.666569,-3.226901,-0.791462,0.440250
10.699926,-9.590018,0.927337,1.214203
10.733493,-14.203510,-2.304801,8.170056
10.766443,-10.660863,4.010581,1.545961
10.799770,-14.289405,4.280387,0.873466
10.833539,-18.404586,9.343556,5.451193
10.866438,-7.587945,13.460982,4.286373
10.899841,-5.611910,12.346591,5.241843
10.933542,-8.007843,11.294152,5.415279
10.966391,-6.281861,6.483730,5.033839
10.999760,-11.224269,-0.631044,3.616720
11.033702,-12.105516,2.618003,2.634165
11.066030,-11.094977,5.678052,-2.397879
11.099339,-9.042325,2.711530,-8.291566
11.133262,-9.592113,9.461325,-13.066523
11.166702,-12.259199,19.666525,-13.113211
11.200183,-14.598567,21.512520,-15.207764
11.233228,-10.837890,19.373075,-12.201886
11.266484,-11.308069,10.736881,-5.178993
11.299888,-9.114303,6.474302,1.184873
11.333372,-5.971352,6.440932,4.118324
11.366555,1.937727,3.066633,7.093076
11.399891,5.014834,4.189254,2.716019
11.433411,2.408653,9.644488,4.228161
11.466662,-1.447197,4.212150,6.650581
11.499887,-0.447881,2.247038,2.325451
11.533620,-6.264054,0.967292,-3.910619
11.566260,-13.973359,-0.043696,6.523385
11.599763,-15.175441,2.730236,4.331265
11.633677,-15.856316,5.315467,2.719012
11.666021,-16.805202,16.090807,5.247529
11.699728,-7.968188,16.276514,4.332612
11.733607,-10.341076,14.592731,7.585251
11.766508,-8.538776,8.305184,4.581169
11.799759,-15.656244,9.425860,3.514365
11.833432,-23.913541,0.109688,3.112124
11.866510,-13.486421,6.545233,-5.282995
11.899762,-8.708771,3.017400,-12.031143
11.933769,-7.361086,9.012546,-17.298425
11.966449,-5.400015,19.944262,-14.197375
11.999767,-0.823635,26.006448,-13.947920
12.033666,-3.964640,20.282006,-12.397469
12.066440,-7.978812,8.708022,2.727991
12.099761,-5.800759,2.220103,3.776240
12.133700,-7.383533,3.525887,2.652870
12.166048,-5.630914,7.820191,5.831735
12.199889,-3.137564,6.281412,6.357581
12.233671,0.155778,4.960215,3.481294
12.266508,0.530185,1.728975,5.440718
12.299893,3.937854,1.392727,3.066783
12.333457,-7.309759,1.854824,-3.262516
12.366440,-18.113231,7.035463,7.293597
12.399937,-16.134652,10.744513,4.596882
12.433579,-17.420833,17.376988,2.784855
12.466799,-13.425217,24.064382,6.656418
12.499804,-6.051860,14.309906,10.722815
12.533678,-8.194148,13.961537,8.982767
12.566449,-14.377395,0.380542,3.499550
12.600101,-11.742632,0.482748,0.561760
12.633665,-6.948970,9.908757,-2.948714
12.666070,-8.711315,4.998673,-10.296931
12.700414,-9.327544,6.734980,-12.032041
12.732756,-10.653830,19.214603,-14.895758
12.766365,-4.998074,19.088305,-13.019236
12.799988,-5.902816,19.947704,-13.122190
12.833182,-10.888619,11.432272,-6.858136
12.866660,-9.904118,4.923702,4.649107
12.900280,-3.433108,6.717322,4.178630
12.933325,0.395057,3.409166,2.744152
12.967091,-3.985890,5.556243,5.753472
12.999779,0.180918,2.480781,3.981101
13.033327,1.196096,4.294154,0.412566
13.067007,-3.738081,3.489973,2.354183
13.099767,-9.910703,3.152378,-0.434713
13.133399,-12.141430,0.092180,5.223437
13.166541,-11.018659,5.665781,6.547477
13.199978,-11.775254,7.587646,2.001624
13.233921,-11.891676,15.974534,3.229594
13.266611,-10.540550,14.327863,8.503161
13.299758,-7.404183,14.883487,8.020263
13.333879,-7.549786,11.702827,6.331992
13.366763,-14.613532,5.394030,4.912179
13.399899,-18.913671,-1.959724,3.645601
13.433808,-8.272262,6.909164,-0.932874
13.466732,-2.776326,5.892790,-6.786757
13.499894,-7.874062,6.314334,-10.943389
13.533536,-10.095811,14.003437,-12.736410
13.566660,-8.446297,20.646387,-11.677836
13.599849,-6.033903,23.304345,-12.441614
13.633467,-6.587133,16.930603,-9.787696
13.666606,-13.168280,7.293298,-0.633588
13.699804,-9.568170,5.984820,2.370494
13.734104,-0.834259,8.222132,6.976504
13.766454,4.109195,3.164649,7.585102
13.799893,6.572468,6.119050,2.943177
13.833971,1.835969,9.248832,5.298707
13.866035,-3.682713,4.310016,3.928876
13.899878,-5.322500,3.720273,-1.579332
13.933324,-14.118213,1.609260,6.036896
13.966423,-14.848172,3.276133,4.732907
13.999970,-13.263154,8.586662,3.128286
14.033263,-14.742225,12.369636,2.510560
14.066538,-9.672471,17.745409,5.073345
14.100266,-9.058187,17.930218,8.175293
14.133310,-7.512525,13.217961,5.982875
14.166555,-11.000253,10.271941,-0.332656
14.200265,-16.227880,1.434777,-3.981101
14.233341,-13.218859,5.164028,-4.967547
14.266648,-10.686003,3.644554,-7.247806
14.300261,-3.592029,6.837635,-12.364548
14.332969,-7.093824,14.915661,-14.158018
14.367064,-5.543822,21.063143,-13.793638
14.399924,-3.491170,16.453392,-14.018851
14.433162,-8.731816,10.103892,-8.105261
14.466755,-11.255544,3.094915,3.504039
14.500154,-6.731538,5.180489,6.862177
14.533275,-1.792274,5.616399,4.846037
14.566646,-3.509875,4.966350,5.864956
14.600065,-2.024669,5.745541,6.462480
14.633088,3.620162,3.940697,2.272029
14.666666,-0.187203,4.025994,4.016417
14.700158,-5.727285,2.518640,2.119692
14.733111,-12.903711,6.472057,5.840863
14.766739,-16.811936,4.968146,5.945614
14.800100,-13.881778,10.651735,2.299264
14.833380,-20.894046,19.747482,5.243788
14.866857,-17.446722,15.462755,11.523255
14.901070,-6.168432,11.974429,4.315104
14.933178,-17.266851,6.821474,4.474174
14.966430,-22.579325,2.176257,2.481679
15.000362,-13.535803,2.089913,-3.053464
15.033169,-7.453266,6.562292,-8.228716
15.066540,-5.730128,5.944566,-10.588735
15.100265,-4.050386,8.973190,-11.970987
15.132914,-3.067381,17.544887,-11.489735
15.166557,-2.061332,16.154555,-10.881287
15.200275,-5.591558,13.600748,-9.474494
15.232678,-10.770850,7.637177,4.713603
15.266501,-8.957328,0.393112,5.969706
15.300273,-5.754071,3.206848,3.277330
15.333138,-5.237653,6.797830,5.123176
15.366428,-4.768223,4.709413,4.987899
15.400266,1.898670,3.679720,2.612167
15.433411,0.857155,0.551883,2.621595
15.466489,-2.739364,0.279383,1.314164
15.500255,-10.382377,5.776816,-1.820406
15.533305,-17.614621,6.080591,3.971225
15.566425,-16.290580,14.572081,2.442921
15.600705,-19.819310,14.146496,2.445465
15.633518,-13.710586,15.653700,5.362904
15.666676,-8.570800,15.188759,8.995486
15.700263,-7.657230,12.596345,7.273994
15.733066,-10.008120,6.132218,4.110991
15.766386,-13.157805,0.838898,4.696544
15.799988,-9.718262,4.258389,1.386292
15.833258,-6.064131,5.346443,-2.614113
15.866903,-6.312388,2.997498,-5.182734
15.899514,-5.982276,10.299924,-7.964895
15.933527,-7.527040,20.923226,-7.825129
15.966442,0.438155,20.348149,-12.284489
16.000213,-8.316556,19.399263,-13.891504
16.033321,-13.119347,1.618239,-5.479176
16.066381,-12.637197,0.296293,0.080957
16.099778,-8.393772,3.305313,-3.731796
16.133098,-5.959830,4.890332,4.705223
16.166806,2.766150,6.391250,9.498137
16.199758,9.475391,7.145151,1.642481
16.233493,2.456239,9.953201,7.108938
16.266604,-0.099213,5.666978,4.600623
16.299719,-7.508185,6.827459,0.346423
16.333317,-14.626102,2.410449,9.970111
16.366497,-15.357556,7.636130,6.482832
16.399761,-16.869549,9.608274,6.133266
16.433613,-18.404885,16.617849,5.098934
16.466535,-12.492642,18.929085,6.396188
16.499762,-10.549528,12.249173,8.643377
16.533697,-17.347359,8.986807,6.251933
16.566401,-16.010598,6.160650,-0.879751
16.599899,-14.148292,0.584356,-1.264034
16.633619,-5.553100,5.805548,-4.390374
16.666642,-3.229893,6.756229,-9.172215
16.700261,-3.724164,7.969834,-10.545039
16.733571,0.758540,13.166185,-9.174609
16.766659,-2.292380,16.703146,-12.287631
16.800347,-8.192502,14.001193,-11.518467
16.833520,-12.137240,8.799305,-3.354995
16.866756,-11.334555,4.836310,3.071870
16.900463,-4.929688,-0.366027,3.083692
16.933166,-2.834537,4.823740,6.232928
16.966414,-3.944588,5.307386,4.837059
17.000512,0.120612,4.004146,5.714864
17.033417,3.375197,1.687374,4.248812
17.066772,0.892321,4.541364,-3.601158
17.100135,-15.690811,4.846486,3.453161
17.133012,-10.630934,2.948565,5.051048
17.166028,-13.707444,7.759286,3.781926
17.200043,-16.809841,8.605517,3.981101
17.232699,-18.325724,16.692521,6.020585
17.266342,-12.381308,15.862901,8.625419
17.299850,-6.163045,15.852426,3.889071
17.333096,-15.055876,12.855077,5.042219
17.366424,-18.027935,7.179569,3.040445
17.400538,-9.352086,-1.459917,-5.493093
17.433067,-8.190707,3.550429,-8.195346
17.466673,-6.915749,6.710139,-10.261017
17.500424,-2.971759,9.475541,-10.897897
17.533526,1.148659,12.992001,-12.228073
17.566558,1.164372,15.054230,-14.535418
17.600348,-10.545937,9.553655,-11.079863
17.633121,-12.228073,8.232607,-1.859912
17.666497,-7.690600,4.579224,3.275983
17.700266,-11.404588,7.327716,8.958674
17.733825,-9.076144,7.595277,8.895675
17.766423,-3.785069,5.681045,7.429772
17.800379,-3.012911,5.950701,7.338191
17.833716,0.823036,3.073217,6.708044
17.866497,1.914682,3.260121,-0.091581
17.900265,-6.027019,0.746269,1.394523
17.933688,-14.769908,7.801036,1.516182
17.966428,-15.797207,9.710032,4.656290
18.000480,-18.782883,14.048929,2.301808
18.032788,-18.407729,20.521136,5.328187
18.066494,-10.107782,19.644976,4.879258
18.100263,-10.464831,15.789426,5.897578
18.133600,-17.219264,7.292101,5.967461
18.166429,-11.380346,0.966245,-0.101458
18.200264,-8.058871,0.190346,-6.642950
18.233099,-7.641068,4.583414,-7.596774
18.266498,-8.292464,6.828956,-8.402601
18.300270,-3.967184,10.013807,-8.864100
18.333291,4.778698,13.344709,-10.209540
18.366424,-1.599085,14.665009,-13.404117
18.400256,-12.992150,9.401019,-7.184657
18.433328,-11.573984,11.062953,0.081555
18.466492,-6.239063,4.794710,4.396659
18.500259,-9.117445,1.996835,6.851253
18.533143,-7.994824,3.080400,5.140385
18.566429,-6.665995,4.583264,5.306638
18.600504,-1.251464,1.419214,3.438945
18.633209,1.471439,2.049959,2.203193
18.666562,-1.081619,2.325002,-0.761982
18.700264,-7.932722,2.980139,1.044657
18.733237,-9.433641,9.366152,-0.134379
18.766425,-19.325040,11.420301,6.888514
18.800266,-13.566630,15.659685,1.708474
18.833194,-14.688503,23.269778,0.902347
18.866675,-13.278118,19.332073,6.059193
18.900262,-13.538946,14.478254,9.084524
18.933431,-14.704365,5.317113,3.583949
18.966423,-13.767750,0.987195,-1.926054
19.000372,-7.793704,2.108469,-4.422697
19.033111,-6.209883,8.018318,-9.536595
19.066494,-4.867735,9.219502,-12.008398
19.100155,-2.278464,13.590423,-13.869507
19.132974,-2.643143,17.471562,-11.270807
19.166464,1.645623,12.974343,-14.510128
19.200267,-10.416646,10.264758,-3.742271
19.233162,-12.382355,8.844197,5.212513
19.266671,-8.435971,2.827503,5.563276
19.300403,-5.430243,2.592414,5.963870
19.333136,-4.160523,4.238936,5.136644
19.366430,-3.473811,6.912457,5.136345
19.400274,0.107593,2.395933,6.391998
19.433329,0.109539,2.676663,-0.191094
19.466494,-1.826243,-0.227757,2.528367
19.500262,-8.829383,5.445357,0.477211
19.533512,-14.842635,7.899801,5.467504
19.566558,-18.718387,13.032105,6.649684
19.600383,-17.787907,19.587514,5.265037
19.632896,-11.744128,21.557563,6.298172
19.666497,-11.575929,16.037384,9.364805
19.700268,-13.539245,9.401917,8.477423
19.733790,-14.355996,4.863396,3.795843
19.766424,-14.952922,-0.972679,-1.271815
19.800265,-8.711464,7.508933,-5.865106
19.832941,-7.240324,7.215184,-10.689145
19.866671,-6.545682,7.627151,-11.533880
19.900266,-2.807152,18.155879,-12.624777
19.932997,1.314464,20.060236,-13.204494
19.966355,-2.962930,13.155111,-10.940246
20.000268,-9.256913,9.437981,1.199538
20.033068,-4.701033,4.944353,5.933492
20.066491,-4.611996,4.395313,4.653297
20.100265,-2.208880,4.754456,6.495551
20.132930,-2.754627,6.612423,4.639081
20.167012,-4.887339,6.680809,4.887039
20.200269,0.539612,3.605198,5.333275
20.233652,-1.374620,-0.088140,1.847941
20.266810,-9.820019,6.696971,-1.550451
20.300302,-15.947598,4.303432,7.508335
20.333305,-14.178819,7.771407,7.940504
20.366991,-12.728629,15.589054,4.241629
20.399405,-14.657527,24.690338,4.912479
20.433115,-10.895204,18.474020,12.193805
20.466968,-7.629995,14.267108,8.684977
20.500063,-9.088415,10.402429,3.232288
20.533267,-19.282691,3.209692,0.819594
20.566753,-19.013633,4.448586,-0.183462
20.600266,-4.168753,4.163067,-8.436720
20.633314,-6.273481,6.427763,-10.337035
20.666931,-5.314270,16.314074,-12.836522
20.700461,-2.026315,20.860825,-12.200838
20.733351,0.732203,15.566308,-13.642798
20.766654,-8.502263,9.275618,-6.900485
20.799808,-11.122661,5.146371,3.739128
20.832905,-7.899352,4.970690,7.268158
20.867366,-4.934626,5.660993,4.650005
20.899780,-3.274337,4.055474,4.502008
20.933168,-4.255097,5.491447,4.793064
20.966759,3.075761,3.962994,3.307259
20.999769,2.376180,1.415922,0.168199
21.033116,-2.628329,2.410598,2.173265
21.066527,-13.164838,6.967525,2.962631
21.099675,-12.669520,7.466734,7.933171
21.133030,-14.996019,10.397342,9.392639
21.166403,-11.160371,21.616522,4.774658
21.199756,-13.146283,22.024150,6.843322
21.233053,-9.790839,21.111178,13.394391
21.266439,-5.599789,10.389411,10.098355
21.299673,-12.575245,6.575161,4.867885
21.333065,-22.290215,0.043247,3.160609
21.366450,-14.246158,7.361385,-1.549253
21.399691,-6.719417,10.363672,-7.701225
21.433099,-4.724976,10.234530,-11.418655
21.466532,-0.047886,19.522568,-14.444884
21.499805,0.196332,22.860654,-11.969790
21.533055,-1.740796,15.555085,-12.048053
21.566527,-4.875367,7.111033,-6.801871
21.599757,-3.977061,1.962717,0.836953
21.633087,-9.229378,4.040509,4.389626
21.666689,-5.643933,3.700221,5.379514
21.699794,-3.047030,6.943732,5.594402
21.733407,-2.045769,5.159838,5.068257
21.766705,0.501753,4.803090,3.608789
21.799888,-0.229852,5.432189,3.201461
21.833588,-0.400893,6.084632,0.655436
21.866756,-16.045764,7.979112,1.576488
21.899890,-13.111715,3.648145,8.074284
21.933304,-16.364803,6.639957,4.767924
21.966898,-22.853620,12.399415,4.710161
21.999767,-19.174798,16.606776,4.216489
22.033106,-16.578044,15.499717,5.429944
22.066760,-10.167640,13.101988,6.658812
22.100399,-23.799962,8.037023,7.327417
22.132922,-18.285919,2.051006,-4.585958
22.167102,-9.310635,3.810957,-5.128862
22.199843,-6.450958,3.619863,-7.906385
22.233233,-6.496000,5.865854,-12.027103
22.267029,-3.825173,10.880389,-9.181044
22.299485,1.510945,12.579734,-10.722815
22.333306,-0.319488,11.238934,-12.527808
22.366935,-14.167296,10.797786,-6.899887
22.399844,-13.130570,5.863460,-1.584868
22.433390,-9.462672,1.335863,3.829962
22.467033,-8.607762,-1.093291,5.432937
22.499836,-6.646840,0.991684,5.862113
22.533123,-4.664670,3.396895,2.585830
22.567036,-1.300098,2.261255,2.305998
22.599878,0.525546,3.509277,1.875924
22.633292,-0.195434,2.178352,2.731882
22.667032,-4.707019,4.431526,-1.862606
22.700798,-16.064320,6.084333,3.899246
22.733104,-19.412282,5.639145,7.090232
22.766963,-12.761251,12.688076,1.356813
22.799817,-18.717639,14.457155,3.759480
22.832992,-13.799474,15.833271,5.930799
22.866713,-6.083584,12.294964,8.397962
22.899890,-5.070352,10.322969,5.926160
22.933216,-8.482211,11.503203,3.717879
22.966931,-16.080631,1.224379,3.141005
23.000504,-10.754240,3.986338,-1.149258
23.033204,-5.476034,5.514492,-7.161612
23.067028,-7.895611,7.561458,-11.279038
23.100137,-7.760034,13.933105,-11.908586
23.133353,-6.979197,22.248764,-14.538261
23.166645,-1.594296,19.179138,-14.514767
23.200758,-8.042261,13.882077,-11.724675
23.233316,-12.182133,2.949911,-3.536661
23.266764,-11.649554,7.836951,2.522531
23.300591,-7.638075,4.290712,7.777692
23.333247,-1.114690,5.142779,5.898027
23.366985,2.688934,12.188119,3.479947
23.400647,1.485506,10.817389,8.118728
23.433143,3.067082,5.452540,7.474067
23.467030,1.696352,9.421969,-1.788981
23.500483,-11.727218,10.991574,4.606010
23.533410,-10.321772,7.746866,15.498969
23.566936,-16.022270,13.034350,5.947409
23.600171,-17.926028,17.763516,5.483666
23.633386,-18.472225,19.235254,5.981528
23.667026,-11.660478,15.232604,7.506689
23.700876,-6.322415,14.571033,3.757385
23.733316,-22.057071,9.466114,2.320214
23.766930,-7.899651,2.426011,-2.558894
23.799897,-6.135660,2.864166,-7.620717
23.833421,-10.592326,5.219247,-10.191583
23.867067,-8.210160,7.322029,-9.552757
23.899944,-5.527511,15.194296,-9.939733
23.933572,3.166744,19.396719,-13.346954
23.966929,-6.779873,13.563637,-10.545488
23.999835,-13.780320,12.057181,-7.242120
24.033313,-6.469514,6.167684,1.245778
24.067142,-5.497732,0.790115,6.101691
24.099795,-3.784470,1.613301,6.723009
24.133579,-2.847107,6.849008,3.977360
24.166930,-2.057890,5.649470,5.661292
24.199794,1.567211,4.518020,3.737782
24.233521,2.040382,1.949548,0.228205
24.266679,-5.039526,0.763029,1.156590
24.299795,-10.528130,7.882592,1.029992
24.334444,-20.599249,9.365703,10.411408
24.366403,-17.637816,15.912732,6.784213
24.400179,-15.179781,24.901634,0.696289
24.433412,-17.938598,16.686236,6.763412
24.466467,-15.755607,15.267920,8.197590
24.500010,-14.670546,7.722025,2.011500
24.533246,-14.954418,3.166594,-1.927551
24.566504,-8.113341,4.261532,-7.420794
24.600256,-9.942277,4.569946,-11.596281
24.633306,-5.121530,8.172151,-11.353111
24.666675,-4.854567,14.471670,-11.578174
24.700257,-0.696738,18.827477,-10.764865
24.733196,-0.028881,13.153914,-10.822328
24.766441,-9.558593,11.032277,-8.394071
24.800260,-9.160393,7.452967,4.447538
24.833100,-7.138118,2.831843,5.610264
24.866423,-6.833894,3.792700,7.212042
24.900256,-5.916732,4.519816,8.271364
24.933179,-3.298729,5.850590,5.059578
24.966561,3.658471,4.285624,5.020222
25.000259,0.659177,1.117085,3.609687
25.033037,-4.617981,1.449442,-0.039206
25.066677,-9.306145,5.730427,1.226474
25.100241,-15.297400,12.245582,4.378553
25.133081,-15.256847,14.596472,3.891016
25.167235,-16.526717,21.567140,3.911667
25.200130,-14.637923,26.496528,7.055964
25.233000,-10.236176,15.497173,7.267110
25.266503,-15.356359,8.954933,7.278932
25.300093,-17.102992,3.381631,2.238958
25.333031,-10.754988,7.395803,-3.253238
25.366554,-4.670057,4.973084,-6.451706
25.400069,-5.402110,6.696971,-9.722302
25.433285,-4.958718,13.783761,-11.055771
25.466503,0.044294,17.412603,-9.245540
25.499958,3.050172,16.861318,-12.875279
25.532949,-5.973896,9.661697,-10.055856
25.566554,-14.133178,5.914637,-0.936914
25.600296,-5.667427,0.665163,4.949440
25.633170,-5.730128,6.482084,3.505087
25.666677,-4.393517,8.605667,5.506561
25.700277,-4.133288,7.378594,4.415664
25.733229,-1.731070,7.321880,4.195390
25.766565,1.958527,5.543224,4.479412
25.800074,-0.794454,7.047135,3.140257
25.832767,-6.015048,4.361344,3.587839
25.866495,-14.247954,7.301977,2.830496
25.903309,-19.482763,7.427079,10.034757
25.932959,-16.752229,16.017182,3.515412
25.966383,-20.093307,22.011729,6.147033
26.000036,-15.356359,20.525775,5.274315
26.033141,-11.893771,13.282308,8.777307
26.066503,-17.342121,6.371497,6.853497
26.100285,-14.477506,5.604128,0.666210
26.133276,-7.066439,6.086577,-6.208387
26.166563,-5.407049,5.946362,-9.883917
26.201721,-7.574627,8.673604,-9.785601
26.233195,0.729210,14.845179,-8.247421
26.266712,4.717494,16.132557,-10.630934
26.301565,-3.887574,12.036830,-9.842466
26.332804,-10.546087,10.889817,-7.193636
26.366645,-9.043073,7.425882,-2.007759
26.401426,-6.263156,-0.092030,4.467889
26.433146,-4.232501,0.571037,6.236071
26.467063,-4.708815,4.801144,3.918401
26.501325,-3.775043,5.127815,2.450104
26.533201,-1.975736,7.753151,3.807066
26.566781,0.765274,5.869445,1.820855
26.601047,0.503100,5.130957,1.558382
26.633231,-10.380282,8.645172,0.381739
26.666923,-16.181191,10.143248,8.503161
26.701049,-14.881243,10.114067,6.846464
26.733262,-14.070328,21.183456,2.763905
26.766570,-20.595508,26.416619,4.882400
26.800924,-8.087154,18.157077,7.927185
26.832921,-18.206309,14.773500,8.132196
26.866798,-11.999120,6.126083,2.775577
26.900814,-7.660971,6.324061,-1.632455
26.933143,-5.294218,3.464683,-7.368868
26.967124,-7.235835,7.883939,-8.925603
27.000499,-7.498608,9.965921,-9.473296
27.033060,2.552609,15.544909,-9.821815
27.066606,3.954614,15.115883,-12.363500
27.099762,-4.384688,11.565005,-12.270722
27.133021,-10.290646,8.926651,-5.783401
27.166996,-7.255438,3.838192,-0.553679
27.200131,-6.132967,1.982470,5.375025
27.233233,-5.948157,0.561311,5.901319
27.267143,-3.239171,4.882251,4.127751
27.300132,-6.271386,6.284854,4.207361
27.333174,-0.414361,5.998288,3.560006
27.366978,2.146029,3.938004,2.554555
27.399965,0.462546,6.732885,-2.294176
27.433260,-9.799518,7.099361,2.663495
27.467030,-12.039074,6.196714,7.795051
27.500068,-16.748188,13.121442,7.363929
27.533276,-17.310995,18.312855,0.857304
27.566713,-12.037428,25.498709,4.382443
27.599969,-16.596450,17.308003,11.487042
27.633255,-10.480094,12.468250,7.193336
27.667027,-12.950998,7.576572,6.277073
27.699987,-15.491636,4.413569,-0.965796
27.733275,-10.199065,4.295351,0.260828
27.766930,-3.267154,5.722496,-3.621958
27.799904,-2.549467,8.510643,-10.353496
27.833300,-2.606481,10.088479,-10.577661
27.867026,1.632006,13.733631,-11.075074
27.899691,-2.813437,10.348109,-12.582278
27.933360,-10.486678,9.083626,-8.740196
27.966927,-11.301634,6.813543,-4.035870
27.999551,-6.006967,2.320812,3.800482
28.033306,-7.338191,2.207682,5.118387
28.066612,-2.966073,6.637862,5.742997
28.099835,-3.089379,4.886141,4.989096
28.133307,-2.241801,8.663878,4.867885
28.166027,2.035144,5.127366,6.159902
28.199725,-0.711552,5.184380,2.542583
28.233173,-6.339623,6.521440,0.229852
28.266785,-13.688289,7.504594,6.481335
28.299881,-18.886137,12.919873,6.041684
28.333133,-18.408177,18.109340,3.195625
28.366679,-20.252078,21.495611,5.494590
28.399594,-12.967010,18.317195,6.943433
28.433346,-7.937511,12.230617,7.344177
28.466655,-15.595339,6.487770,6.094059
28.499760,-11.181620,3.203407,-0.025140
28.533043,-6.267795,4.333959,-5.164477
28.566496,-8.412627,5.052245,-6.359227
28.599759,-4.879408,7.397300,-9.208279
28.633126,-4.520115,9.557096,-9.616205
28.666547,1.670764,15.393920,-9.920130
28.699719,0.018107,13.026269,-12.040421
28.733166,-6.884473,8.430435,-8.819357
28.766654,-13.039437,6.617361,-2.398477
28.800098,-8.789129,0.704070,5.775170
28.833085,-8.499869,3.153875,8.088949
28.867187,-4.843942,6.372844,7.326668
28.900024,-3.199965,6.324210,4.370023
28.933264,-3.073816,6.601648,5.051796
28.966935,-0.322481,5.580185,2.498439
29.000006,-2.537196,0.586600,2.878232
29.033297,-6.785709,4.645815,1.612552
29.067032,-14.344025,12.649917,1.133994
29.100025,-15.318500,11.126103,8.834471
29.133262,-9.810891,16.535396,2.883470
29.166922,-12.851486,26.330275,5.836973
29.199339,-10.292143,18.169198,6.373293
29.233153,-8.770723,15.848984,10.262813
29.267030,-16.533002,6.142693,8.005598
29.299783,-14.887378,3.502094,-0.693894
29.333306,-8.952090,3.473811,-3.407071
29.366927,-5.280750,9.839024,-7.966392
29.399862,-3.698276,7.900100,-10.637219
29.433100,0.284172,13.594014,-11.918911
29.467049,1.566911,17.062588,-12.159687
29.499793,-3.572875,11.206910,-10.428168
29.533452,-9.341611,10.021887,-6.049017
29.567049,-3.746311,6.458739,1.954636
29.599844,-5.051946,3.289302,2.886762
29.633233,-10.613576,4.798451,6.754434
29.666257,-8.099125,3.862434,7.402837
29.699387,-3.953267,4.118024,5.468402
29.733309,0.173137,3.816793,4.858607
29.766591,-0.896062,4.082559,1.495232
29.799773,-8.261488,2.197357,0.672795
29.833228,-10.586041,6.031958,1.700542
29.866925,-12.417072,7.277436,5.413483
29.899898,-11.057117,7.619968,4.275149
29.933473,-15.707870,18.861745,4.643421
29.967008,-17.456448,18.243421,6.123090
29.999848,-8.040465,18.524151,6.284106
30.033578,-10.537557,16.831390,10.106436
30.067310,-13.258515,10.206846,7.614132
30.099852,-11.124157,2.158450,1.286780
30.133511,-4.900956,1.576638,-5.618793
30.167187,-8.979774,4.837208,-8.040016
30.199472,-6.918891,7.096517,-9.140790
30.233321,-2.748492,8.216894,-10.089676
30.266712,-2.023921,14.162059,-12.002412
30.299869,-3.365620,14.047732,-11.893172
30.333534,-8.906449,10.839836,-11.471179
30.365997,-9.784105,5.438474,-1.797511
30.399723,-7.020798,1.932639,4.673649
30.433697,-8.827288,3.214929,5.306937
30.466472,-3.666851,5.551753,5.977188
30.499760,-1.743939,6.007566,3.471866
30.533935,-0.824682,6.152270,5.353177
30.566504,1.545363,4.446640,4.438559
30.599759,0.284322,5.650368,1.411732
30.633652,-9.042175,10.101198,1.086109
30.666677,-16.760609,7.273246,9.304200
30.700254,-12.567464,12.264287,5.184978
30.733256,-12.239147,16.621890,2.342211
30.767118,-18.222471,23.379765,6.134313
30.799836,-8.922910,13.054851,8.762941
30.833117,-9.671424,11.009681,8.966007
30.866496,-12.503566,7.006283,5.486808
30.899897,-17.650984,2.011650,1.869340
30.933160,-12.756313,3.041343,-0.056415
30.966457,-4.666765,6.566931,-5.491298
31.000247,-4.419854,6.896894,-8.583669
31.033260,-3.178715,10.836095,-9.002370
31.066764,-2.718414,19.674606,-11.889581
31.100132,-0.535123,12.033089,-10.774292
31.133325,-12.594549,7.902644,-11.699086
31.167043,-8.372523,-0.330412,4.247914
31.200084,-5.772177,-0.020501,5.740303
31.233068,-4.559471,4.501409,6.721363
31.267752,-6.952411,2.429154,4.923702
31.299798,-5.217750,4.854118,6.560347
31.333353,-0.539612,5.964469,3.626746
31.366841,2.584034,2.617105,0.625956
31.399771,-0.629099,1.743789,2.445315
31.432999,-9.343855,6.948521,2.240753
31.467600,-10.614025,10.385221,8.587709
31.499307,-10.568383,12.831284,10.549678
31.533167,-11.475519,17.940992,4.233698
31.567465,-11.490334,24.291689,6.381823
31.599795,-13.121591,20.311187,10.506880
31.633247,-10.579457,13.003673,8.468743
31.667248,-14.166698,4.018961,2.005365
31.699796,-13.238313,1.303989,-2.476740
31.733122,-9.293874,3.482042,-3.940099
31.767006,-5.299755,5.407647,-8.273010
31.799792,-4.139423,6.498993,-8.767431
31.833436,-3.694684,11.801591,-8.827437
31.866776,2.567574,18.119367,-8.051239
31.899787,-1.484458,15.090444,-12.663983
31.933656,-12.807192,9.951855,-9.725145
31.966445,-10.721169,0.606802,0.422592
31.999759,-6.607784,-0.582410,4.935673
32.033663,-6.269591,0.504446,3.273888
32.066441,-5.704838,3.257727,5.180190
32.099758,-5.539034,6.027618,4.964704
32.133729,-1.838663,7.391913,6.509767
32.166402,2.577899,2.288041,5.395975
32.199759,2.365107,2.863268,2.680853
32.233569,-2.053550,7.202764,-2.427508
32.266570,-12.281197,7.854908,6.456046
32.299757,-15.006195,8.500917,8.422504
32.333592,-15.810376,16.159643,3.278976
32.366646,-15.114087,21.508480,4.011628
32.399777,-15.806934,21.470321,8.276751
32.433685,-9.984028,16.347594,7.217728
32.466459,-12.996490,5.807643,3.204903
32.499763,-15.251310,-0.345974,0.758390
32.533506,-9.319314,0.706165,-3.146692
32.566015,-10.361278,5.056136,-7.204260
32.599776,-7.062549,4.684273,-8.641132
32.633841,-3.486232,6.844668,-9.405807
32.666418,-6.109622,16.491251,-10.419339
32.699659,-2.585680,16.013890,-11.305375
32.733081,-6.552565,14.569686,-10.969726
32.766340,-15.563166,9.674566,-0.436808
32.799665,-8.886546,3.261318,7.021995
32.832945,-3.688100,1.175745,6.586684
32.866394,-1.822651,1.969750,5.339560
32.899680,-5.271622,3.492966,5.452540
32.933125,-2.990614,3.166145,6.699515
32.966507,1.404698,3.009918,1.331224
32.999717,0.304074,1.399910,1.084014
33.033193,-4.732757,5.988112,-0.198576
33.066583,-13.001877,9.999142,7.145151
33.099760,-14.746714,12.033238,8.008591
33.133159,-11.393964,17.803171,3.031168
33.166728,-11.830771,19.244083,4.931483
33.199888,-12.208919,18.059360,8.363395
33.233294,-9.510707,13.492556,7.838746
33.266856,-13.198358,7.358393,5.161185
33.299795,-18.440051,3.228846,2.619649
33.333674,-13.129074,2.097695,0.870922
33.366514,-5.137392,6.634420,-5.439671
33.399763,-3.510923,6.852151,-9.456387
33.433594,-4.195988,8.185619,-10.388064
33.466824,-6.093162,15.028791,-11.221874
33.500050,-3.020693,16.475090,-11.331413
33.533613,-5.492944,10.384323,-12.028300
33.566656,-12.441913,4.771515,-1.994740
33.600156,-10.835346,4.007887,3.292743
33.633942,-6.466521,3.633929,4.126404
33.666110,-5.064666,3.632882,6.893602
33.699791,-4.869681,2.269186,7.550385
33.733740,0.340288,4.692952,5.619093
33.766501,2.935546,5.189617,3.773397
33.799994,2.248535,5.292572,3.176022
33.833216,-2.529115,2.808200,2.205288
33.866798,-15.356210,12.095041,2.693423
33.900417,-11.541362,8.589056,7.950380
33.933199,-13.558998,14.076912,4.805933
33.966926,-17.798682,17.245901,5.463165
33.999977,-11.589248,18.541210,2.565778
34.033028,-10.930070,16.506066,6.656118
34.067036,-11.008483,10.044484,6.955554
34.099739,-10.754240,6.116207,2.265145
34.133701,-12.064963,3.607891,-2.515199
34.166918,-12.329382,3.709499,-2.737418
34.199797,-5.637948,4.947046,-6.741714
34.233700,-2.760164,3.545341,-10.876199
34.266713,-8.029990,9.298364,-8.450188
34.299762,-3.022039,18.464892,-10.098954
34.333726,-1.153897,17.215673,-12.428745
34.366835,-14.728158,10.891912,-7.646156
34.399893,-15.041211,6.667491,1.814720
34.433486,-9.153060,3.813800,4.267218
34.466842,-5.365149,1.488349,4.565457
34.499994,-5.948457,3.723117,8.061116
34.533610,-5.138888,0.499807,8.687970
34.566805,3.445230,7.293298,3.304715
34.599887,5.242591,7.258132,3.141155
34.633473,0.737889,3.872161,5.001965
34.667261,-10.659217,6.643848,-0.775300
34.699889,-12.330728,6.953908,5.921970
34.733295,-12.476032,9.029904,6.153917
34.766342,-13.124584,11.948840,4.116677
34.799723,-19.620884,16.762853,6.247294
34.832990,-12.276558,17.758577,5.950851
34.866826,-5.470497,12.214306,5.779959
34.899891,-5.226729,10.124542,3.746910
34.933397,-13.960639,6.123090,1.480567
34.966545,-16.581336,2.677711,1.450938
34.999887,-11.010728,2.185685,0.854012
35.033232,-3.413056,4.129098,-6.653425
35.066754,-6.105432,4.041108,-8.768927
35.099801,-7.060603,6.951663,-9.756570
35.133622,-3.585744,17.527978,-13.275724
35.166405,-6.943732,14.886780,-12.507906
35.199774,-18.590143,13.861426,-8.090147
35.233480,-13.685895,4.835413,-0.964598
35.266454,-9.398924,6.014898,2.697913
35.299763,-7.093824,3.401384,6.539846
35.333819,-3.264760,5.852685,8.090446
35.367039,2.712727,4.488839,8.825342
35.399759,2.886612,8.881159,5.653211
35.433466,3.402731,7.228203,5.551753
35.466789,1.554192,6.146135,3.671639
35.499887,-3.308306,5.380113,2.451151
35.533475,-11.494823,6.045575,5.004958
35.566080,-15.489990,5.415878,8.298749
35.599907,-19.044160,9.639101,6.159304
35.633443,-17.564341,16.027508,2.124032
35.666880,-15.777903,18.063550,5.606523
35.699760,-12.266681,16.352233,5.308733
35.733525,-5.570309,7.352557,4.681280
35.766410,-12.585720,2.336375,3.076060
35.799721,-14.558164,3.049574,2.102184
35.833380,-7.846678,2.869404,-2.620398
35.866445,-4.576680,4.600024,-6.402473
35.899847,-4.085701,3.278677,-7.996470
35.933644,-5.393730,7.644809,-8.208813
35.966458,1.142075,10.453158,-10.971971
35.999758,-5.173755,11.964851,-11.761187
36.033536,-20.551813,9.748340,-6.632774
36.066711,-14.871815,7.424236,-0.818098
36.099755,-7.859846,2.960237,2.904270
36.133509,-5.457628,5.656803,3.883833
36.166714,-8.506004,6.843022,7.141859
36.199761,-8.062163,4.376757,8.364592
36.233692,1.449292,5.353027,7.483195
36.266661,5.431440,5.168967,5.527362
36.299762,2.857282,1.457672,6.270039
36.333741,-5.719503,4.788125,-0.297041
36.366053,-15.498370,9.467311,4.298494
36.399763,-13.947471,9.542731,7.398347
36.433674,-9.344903,12.672962,1.469494
36.466539,-14.258728,21.459397,3.473213
36.499845,-17.041189,24.638711,7.048482
36.533619,-8.586363,15.024301,8.463655
36.566456,-15.110496,8.571698,3.272242
36.599762,-17.734186,1.385544,1.447496
36.633687,-7.277436,1.361751,-4.493478
36.666615,-6.390652,3.731646,-7.748512
36.699760,-4.091837,5.856426,-8.428789
36.733638,-4.479113,9.598248,-9.348793
36.766529,-1.087156,14.965791,-8.180681
36.799717,0.752255,13.691731,-10.935158
36.833365,-10.871111,10.573322,-10.379534
36.866675,-14.395053,7.988389,-1.312369
36.899842,-10.123645,3.797489,2.823463
36.933469,-8.298150,0.592885,4.496322
36.966034,-6.316279,1.425349,6.792144
36.999800,-4.565457,1.454380,7.027682
37.033362,-0.278934,6.296377,2.513104
37.066722,3.393004,4.816109,3.570032
37.099674,0.207106,4.250907,4.949590
37.133676,-3.585295,4.317199,0.384882
37.166800,-9.347297,9.583434,-0.325324
37.199758,-12.143076,11.907538,5.900272
37.233741,-13.085527,15.406789,2.830646
37.267074,-14.897404,23.739656,3.031766
37.299766,-13.637710,26.790577,6.674075
37.333728,-8.301143,12.476181,7.082152
37.366556,-18.510683,8.448990,6.387210
37.399764,-10.499248,0.960408,-0.325623
37.433688,-11.802040,3.664008,-1.869938
37.466128,-8.596987,4.097972,-1.855124
37.499887,-4.781990,5.273268,-5.293619
37.533728,-3.644853,8.255352,-9.047413
37.566449,-6.451257,14.311552,-9.374083
37.599882,-0.999615,15.855718,-9.208578
37.633744,-7.675037,14.100855,-9.727240
37.666513,-13.931160,8.622726,-0.788918
37.699874,-15.094484,3.224806,1.839860
37.733622,-6.548076,2.311086,5.728781
37.766450,-1.085211,0.581812,5.867500
37.799400,0.294797,2.067617,4.822992
37.833677,-1.914083,5.184230,3.498652
37.866538,0.129591,5.430243,3.319829
37.899892,1.379109,3.997113,4.481058
37.933638,-0.261875,3.744815,0.144705
37.966386,-10.081146,9.352983,-1.371777
37.999387,-17.149680,9.683096,8.610306
38.033567,-16.309585,13.062482,5.000918
38.066018,-13.649232,14.379640,3.999657
38.099960,-13.144936,19.484709,4.763135
38.133096,-11.754753,17.733288,7.067187
38.166454,-8.907945,13.644145,7.175828
38.200020,-12.782501,6.941787,1.561225
38.232987,-15.449437,1.700991,0.300782
38.266819,-7.904440,1.757107,-1.523365
38.300216,-6.956751,4.093483,-6.178159
38.333347,-6.663750,5.741650,-8.656844
38.367059,-4.335605,8.022209,-9.231922
38.400141,-1.322694,17.386266,-10.946382
38.433307,-0.184061,13.434046,-12.612356
38.466831,-9.036189,10.894455,-11.300287
38.500046,-17.891311,5.555644,0.152337
38.533162,-10.435650,6.405167,5.319208
38.566634,-4.293406,3.534866,5.020970
38.600058,-0.871670,3.344071,5.810187
38.633322,-1.452584,5.414381,8.200733
38.666587,-0.378746,6.809502,5.440419
38.699980,3.626148,5.492495,3.230193
38.733198,2.352686,4.069690,3.245606
38.766480,0.317093,3.538607,1.133695
38.800280,-15.392872,6.848409,0.157275
38.833323,-17.536807,7.770360,6.258816
38.866668,-15.931138,8.942064,1.214053
38.900284,-18.704171,18.556623,2.015092
38.933474,-17.797634,27.437783,7.011221
38.966428,-8.733312,18.043947,5.600836
39.000265,-6.142244,11.097072,5.834878
39.033300,-13.888063,4.626661,4.882251
39.066666,-9.545275,1.509748,-0.036064
39.100259,-6.115309,3.801380,-1.159733
39.132985,-6.140000,6.351445,-2.895142
39.166425,-4.522359,4.267368,-6.481635
39.200257,-3.560604,6.469962,-9.863864
39.232929,-6.070865,16.407751,-12.777562
39.266666,-4.149898,16.899777,-9.374831
39.300257,-8.924256,15.276899,-11.416111
39.333008,-14.835751,7.821388,-1.666125
39.366122,-17.268796,7.731452,3.680319
39.400258,-7.658127,3.586493,11.167703
39.432963,-0.154282,-2.480481,9.814183
39.466668,1.086258,1.460216,5.857773
39.500274,0.149942,8.770274,3.404826
39.532999,-0.287913,5.482319,4.244024
39.566561,-1.099277,3.363525,3.516011
39.600264,-1.769079,3.568086,0.084099
39.633202,-9.944821,9.832140,-1.009791
39.666674,-15.174842,4.967847,6.740966
39.700270,-14.828269,5.130209,4.660630
39.733043,-14.842336,7.330559,2.733228
39.766561,-15.253554,9.974002,4.909486
39.800274,-10.573621,16.453841,5.298557
39.833196,-10.378636,16.927760,5.071100
39.866667,-5.676855,13.080440,2.618752
39.900278,-6.034950,6.227541,-1.058125
39.933419,-11.367028,6.676320,-1.131001
39.966437,-11.540763,1.489995,-1.702937
40.000304,-6.625741,1.926952,-6.280814
40.033279,-5.179741,2.812090,-8.867841
40.066443,-4.108746,3.167343,-9.704345
40.099811,-6.093012,10.026526,-9.711229
40.133126,-2.934797,14.846376,-12.013635
40.166437,-9.203341,12.748232,-6.484328
40.200004,-15.123814,8.604769,-0.492625
40.233051,-12.088008,5.321902,1.906900
40.266406,-9.896187,5.357367,3.710397
40.299866,-8.877568,5.307536,6.772690
40.332994,-7.280279,0.793108,6.881630
40.366440,-2.816430,1.666125,5.527661
40.400009,0.785177,4.254798,4.989245
40.433156,3.479049,2.716319,4.420902
40.466493,4.158727,3.681216,1.778955
40.500009,-7.572382,6.455896,-1.078177
40.533198,-15.436119,11.954676,5.550556
40.566432,-14.577019,12.128860,7.399844
40.600277,-13.652674,14.726961,3.753494
40.633387,-16.297913,16.204386,3.592628
40.666682,-15.690811,14.436803,4.590447
40.700305,-11.793211,10.722216,4.189105
40.733689,-10.159409,11.862047,2.945721
40.766600,-13.015944,5.496685,1.889093
40.800088,-6.707895,3.448073,-2.380071
40.833380,-4.286223,2.124481,-7.211294
40.866857,-5.138140,2.781413,-9.007608
40.900227,-4.684722,3.913911,-6.698018
40.933860,-7.631790,8.656844,-7.302576
40.966460,-1.854226,16.637303,-11.754753
41.000005,-7.913568,12.582877,-8.504059
41.033187,-21.163403,9.470603,-3.154922
41.066631,-13.245795,2.912351,4.504851
41.100000,-4.635938,-0.661272,4.838854
41.133137,-3.576167,3.186347,4.487792
41.166573,-5.132903,4.689511,8.825043
41.200276,-2.386206,6.769398,6.297723
41.233398,2.473598,11.021053,4.623668
41.266263,3.502692,6.321068,5.807343
41.300272,0.952777,3.903586,2.064025
41.333449,-10.397192,8.972741,0.379046
41.366583,-17.311444,7.520755,8.903606
41.400274,-14.926585,7.077513,0.734897
41.433598,-17.695129,13.457839,1.901214
41.467134,-20.057841,15.154940,2.983731
41.500043,-9.513850,21.591233,3.718029
41.532897,-10.908971,15.869485,5.120482
41.566863,-8.275105,7.091130,0.355402
41.600044,-3.611333,1.508999,-4.472079
41.632936,-6.980245,-0.314250,-6.931012
41.666880,-9.415235,4.408032,-7.274742
41.700045,-4.830774,5.362156,-7.400143
41.733048,-1.569455,5.282097,-7.528387
41.766820,-3.988733,14.629244,-10.339130
41.800257,-5.117190,14.277434,-11.131939
41.833005,-11.729313,13.044226,-12.025756
41.867443,-12.720399,5.003761,-6.039290
41.899897,-9.830344,1.952392,3.699623
41.933056,-7.329063,6.862177,5.115245
41.967128,-0.057313,4.828230,9.068213
41.999800,0.919556,7.234638,8.364592
42.033129,-0.198277,7.893217,7.069881
42.067232,2.015990,7.011221,5.884859
42.099799,2.569818,4.442600,5.278056
42.133225,-0.536620,4.726323,0.819594
42.167033,-13.803065,11.255694,1.079824
42.199796,-18.645212,9.101134,6.565884
42.233225,-16.586724,13.955103,3.230941
42.266834,-17.429962,24.889662,1.995489
42.299967,-14.091278,23.005658,5.927058
42.333066,-12.474236,13.705648,8.531893
42.366632,-12.715161,4.812816,6.654622
42.399788,-12.102822,2.630873,3.268950
42.433027,-8.045553,6.578454,-0.895763
42.467134,-4.127601,2.799969,-6.158855
42.499344,-4.410127,5.175252,-7.136472
42.533059,-5.390738,8.862454,-7.005684
42.566639,0.718137,14.401936,-9.093054
42.599775,0.831416,18.008182,-11.287418
42.633294,-4.309867,13.284702,-8.670612
42.666690,-16.146624,8.565562,-4.325429
42.699859,-5.529905,1.547158,6.094059
42.733179,-2.922227,1.496280,5.922120
42.766636,-1.957629,12.632409,4.573986
42.799790,-0.255740,11.820147,10.780876
42.833175,-5.165375,9.942876,10.201309
42.866686,0.917162,9.441422,8.886995
42.899871,1.708025,3.878446,7.214436
42.933191,-3.725212,1.249818,6.114112
42.966929,-10.969427,6.192075,8.178885
42.999880,-7.298835,9.439776,2.936892
43.033201,-6.146734,11.043201,-4.327225
43.066684,-14.941100,15.244127,-4.234895
43.099782,-18.879553,17.207742,-1.555838
43.133268,-19.106411,17.558954,0.667108
43.166925,-11.678734,13.605387,-1.256103
43.199789,-9.932251,9.634911,-1.445102
43.233227,-8.547455,6.289194,-0.606952
43.266684,-7.463292,2.860874,-0.514472
43.299796,-7.047884,1.740796,-0.066890
43.333284,-8.878017,1.226623,-0.683569
43.366929,-9.955596,0.320984,0.949185
43.399788,-9.736518,1.309675,-1.581427
43.433251,-10.991723,3.993970,-2.884069
43.466708,-18.541659,9.620994,-2.361665
43.499865,-23.246583,15.071140,-0.404335
43.533165,-19.432483,15.311616,4.322287
43.566633,-10.355741,8.938173,6.121893
43.599746,-6.319871,5.754968,3.422484
43.633251,-5.071399,2.849052,3.702915
43.667027,-4.869381,2.624588,3.175124
43.699796,-1.268224,1.744986,1.042712
43.733299,0.742828,0.190645,-0.934520
43.766637,-3.108832,1.515434,-1.720445
43.800998,-4.003847,1.133545,0.043995
43.833252,-2.329641,2.547372,-2.010902
43.866683,-4.260035,1.549553,-12.794622
43.899819,-6.529820,2.430351,-12.256655
43.933330,-9.458631,-1.126512,-14.572380
43.966628,-9.570115,-7.471223,-10.321173
43.999932,-9.893344,-7.314398,-7.670099
44.033252,-10.548631,-6.269441,-6.639658
44.066685,-6.982190,-8.175144,-3.565393
44.099997,-4.740838,-7.625805,-4.364486
44.133251,-4.829277,-0.613087,-8.105560
44.167065,-10.874104,6.374041,-4.977723
44.199946,-4.229808,11.895417,-6.780172
44.233250,-0.258733,11.007137,-11.197782
44.267034,-10.084139,4.857410,-4.990293
44.299876,-19.425899,1.990999,-2.457436
44.334873,-12.793724,-1.323293,-2.007610
44.366427,-9.320361,-2.144533,-1.769677
44.399857,-9.107719,-1.414874,-3.366667
44.433914,-11.035868,-0.137821,-3.804223
44.466533,-11.338296,2.778720,-4.384389
44.500460,-9.603486,3.800931,-5.976440
44.534277,-6.233676,3.233036,-8.502413
44.566449,-8.202678,2.714373,-9.685490
44.600378,-6.770745,3.957457,-11.934923
44.634109,-6.885671,1.122621,-15.590251
44.666024,-4.719439,1.339155,-19.017224
44.699898,-2.245692,3.383277,-19.824099
44.733628,0.228954,2.828102,-17.295881
44.766515,5.079480,-3.630338,-10.817389
44.800310,2.828102,0.038608,-6.802918
44.833414,-2.023921,6.514257,-1.079973
44.866671,4.696544,7.543351,4.239534
44.900358,9.962479,10.019344,-0.383236
44.933290,0.543354,11.061756,2.961135
44.966554,-6.484179,9.757169,2.650027
45.000263,-5.364400,12.079029,2.760463
45.033681,-11.019707,6.744857,4.087647
45.066670,-7.892468,10.862731,1.758754
45.100261,-14.099807,16.284445,3.979455
45.134159,-25.039006,12.211164,7.335048
45.166431,-20.608677,14.798341,4.854268
45.199995,-18.592388,19.289425,7.425732
45.233407,-9.776323,21.034561,2.487066
45.266047,-6.026421,12.305289,7.658277
45.300257,-8.871582,7.902195,10.848216
45.333212,-3.686604,3.978856,8.189958
45.366440,-6.471908,5.722795,2.362563
45.400275,-10.221661,1.678246,-0.880649
45.433109,-11.308069,3.744515,-3.460792
45.466683,-7.135275,4.902004,-9.386803
45.500272,-5.831735,8.584717,-10.612528
45.534008,-8.738998,22.076674,-13.072209
45.566436,-12.281047,14.523297,-10.432957
45.600270,-6.334536,10.508377,-7.387423
45.633074,-4.664670,9.421819,1.222284
45.666678,-0.401043,8.406941,5.227477
45.700450,2.594360,7.395654,6.194769
45.733868,2.098443,7.182413,11.693250
45.766401,1.089401,8.708322,10.091471
45.799918,2.680404,5.988860,8.695452
45.833295,1.580080,3.603701,6.566632
45.866511,-0.820941,1.981422,4.781691
45.900345,-6.986081,7.656182,2.003719
45.933299,-10.771898,9.081531,3.702017
45.966562,-17.032659,16.035289,4.360595
46.000101,-18.819247,16.936289,2.986873
46.034925,-18.172041,20.068765,3.252340
46.066506,-18.624262,18.775252,6.984435
46.100167,-10.435501,15.908991,6.420131
46.133225,-6.522487,5.861215,2.798173
46.166563,-11.250755,4.489438,3.104044
46.200015,-10.661012,0.595280,1.939971
46.233298,-7.694790,0.855060,-3.694385
46.266501,-6.123689,0.002245,-4.720487
46.300284,-5.754520,4.045447,-5.207275
46.333197,-5.615052,9.840969,-8.073985
46.366566,-3.318931,15.423399,-11.284425
46.399889,-8.223478,15.222279,-10.962244
46.433068,-10.106286,11.293703,-8.858713
46.466505,-7.999313,5.010944,-8.019665
46.499989,-11.770914,4.529542,2.119692
46.533295,-4.993286,5.807942,4.161271
46.566438,-6.710439,2.352387,6.819977
46.600281,-5.069903,3.557462,9.720058
46.633189,0.890675,7.248854,4.367030
46.666676,0.605455,7.698980,4.839303
46.700277,0.049532,5.679548,4.433771
46.732969,-1.804095,2.525823,1.624225
46.766419,-3.351553,2.714074,1.749326
46.800269,-8.903157,9.619049,-0.691799
46.833239,-15.863050,12.387892,4.136430
46.866455,-16.193462,18.622915,0.636731
46.900479,-20.520986,22.527249,4.106202
46.933156,-12.285836,15.072187,5.183632
46.966430,-11.272005,10.434902,5.205928
47.000278,-11.407880,10.204153,5.248427
47.033177,-14.847872,1.949548,2.296870
47.066685,-9.276965,1.489845,-0.884839
47.100273,-5.015283,-0.740284,-5.263242
47.133254,-6.326904,6.987577,-6.159004
47.166565,-4.210055,8.476974,-7.821986
47.200271,-3.108832,11.340541,-9.110412
47.233234,-5.279104,16.622638,-8.057225
47.266322,-6.832248,13.851849,-10.234530
47.300269,-12.444307,12.077383,-5.466756
47.333341,-8.943560,3.321924,5.339410
47.366751,-6.587432,3.623754,6.908716
47.400270,-4.679335,3.288853,6.472806
47.433579,-1.785091,4.328722,8.316706
47.466988,-1.822202,6.360573,6.722709
47.500212,-0.428727,6.998950,4.801144
47.533221,3.204005,3.179464,3.437598
47.566888,1.447047,2.873594,3.023685
47.600216,-5.690023,5.152356,0.184809
47.633104,-14.527637,15.211804,7.314547
47.666879,-15.928594,16.213215,7.140363
47.700595,-12.383403,21.776341,2.519239
47.733417,-14.949929,21.948430,7.294345
47.766833,-14.869271,15.712060,6.447965
47.800445,-17.832052,9.414487,5.752425
47.833225,-13.928915,-1.138783,1.744687
47.866693,-5.085017,0.992432,-3.170335
47.900111,-7.274742,3.138611,-5.410191
47.933061,-4.971737,6.283208,-7.090532
47.966710,-4.236093,9.203490,-8.633201
47.999902,-0.824982,15.511240,-9.821366
48.033305,-4.187459,14.338787,-9.985524
48.067108,-15.091790,11.443495,-7.888278
48.100067,-12.120630,9.580141,-0.483496
48.133581,-1.506904,9.627728,6.348153
48.166658,-1.178588,6.685448,9.391292
48.200145,-0.303027,7.233590,11.880453
48.233580,-3.015605,8.121123,12.213857
48.267006,-2.836482,5.081276,11.615286
48.300021,-0.462995,3.222711,7.952774
48.333190,-4.953481,4.315553,3.987536
48.366262,-4.391871,5.155948,-0.448031
48.400347,-11.300886,14.315892,-4.448586
48.433379,-19.277004,14.887677,-4.552288
48.466848,-18.861745,8.881758,0.352110
48.500156,-15.847637,12.246779,-1.142823
48.533387,-9.551859,19.103868,-2.606331
48.566647,-4.633395,17.578407,3.908823
48.600078,-4.116528,11.762534,8.760098
48.633554,-4.079416,2.307943,7.948734
48.666676,-9.229079,0.692548,4.276945
48.700182,-14.906682,3.843280,4.398754
48.733587,-8.956280,5.192461,-1.866646
48.766433,-9.830793,6.195667,-7.149790
48.799787,-8.888941,4.790669,-8.336160
48.833354,-6.819528,15.506451,-15.546256
48.866502,-7.109087,18.154832,-12.905657
48.900437,-9.307791,16.994052,-14.145448
48.933122,-7.555472,6.705949,-8.698744
48.966555,-10.957904,1.241288,0.638526
48.999793,-7.043694,7.066439,5.272669
49.032924,-2.534652,9.435287,8.327480
49.066275,1.705780,11.080611,9.330836
49.100134,4.864443,13.281859,9.456536
49.133250,1.660139,9.502028,8.285431
49.166774,0.356300,7.612636,5.877526
49.199773,-2.525225,1.800654,4.830025
49.232993,-6.080891,1.552995,1.241438
49.267129,-14.565796,2.519239,-1.099576
49.299881,-19.390733,6.922483,3.088630
49.333992,-21.567589,12.124670,2.291482
49.366633,-20.496445,17.353793,0.163111
49.399913,-12.721297,19.403602,9.367648
49.433040,-10.113319,13.175613,11.441101
49.467024,-13.029262,4.079416,8.199985
49.499786,-16.572657,3.200563,0.891124
49.533027,-11.165010,3.526037,1.629013
49.566929,-4.996877,8.559726,-4.104856
49.599781,-5.973148,6.619156,-8.980821
49.633080,-7.851616,10.971372,-10.159709
49.667027,-2.236115,18.154533,-10.044334
49.699789,-3.763370,17.277625,-9.849050
49.733073,-13.420578,15.482508,-4.554533
49.766933,-13.317773,5.800460,2.656162
49.799786,-7.457456,4.053229,4.005343
49.833037,-4.535378,1.207768,10.246202
49.867023,0.216384,2.989268,9.292378
49.899790,2.989268,6.488069,6.965730
49.933073,4.235045,7.006582,8.238892
49.966925,1.448843,6.155563,6.660907
49.999788,1.138633,2.527769,4.436464
50.033038,-2.455042,2.634165,-0.344777
50.067023,-12.574796,9.534201,-1.970498
50.099787,-20.170822,11.411921,4.866538
50.132975,-17.865123,20.404414,5.749132
50.167046,-14.020646,22.089993,1.917076
50.199315,-10.406171,16.074645,7.421692
50.232884,-12.340755,9.991211,8.220935
50.266795,-8.690364,4.330218,4.857260
50.301008,-16.777069,2.212321,1.637692
50.332992,-8.091044,3.855999,-1.163923
50.366934,-5.496984,6.077449,-6.520093
50.399806,-7.855357,4.718242,-8.863352
50.433057,-7.769013,9.584631,-10.839237
50.467024,-2.620398,18.650150,-11.218133
50.499808,-5.578988,17.747055,-13.054701
50.533063,-13.134012,14.677130,-6.919191
50.566927,-14.640916,8.989501,0.564004
50.599930,-8.072938,5.195304,5.496535
50.633060,-1.760549,2.580593,7.167299
50.667023,1.800205,3.017849,7.867179
50.699938,-1.050942,5.861065,8.624522
50.733217,0.515221,6.613769,8.042411
50.766931,1.211060,4.985355,4.842895
50.799950,1.130702,3.287207,3.962246
50.833247,-7.884388,3.146542,0.203065
50.867035,-15.378656,3.460643,-0.045342
50.899944,-13.376733,4.863545,4.564409
50.933300,-14.908478,8.781347,0.234042
50.966923,-14.665158,11.036916,1.227820
50.999996,-13.446766,14.379490,5.504616
51.034631,-9.973253,21.130033,7.694191
51.066490,-5.451642,13.840476,6.568428
51.099847,-8.736903,7.341333,3.115865
51.133959,-16.572956,2.866261,1.031489
51.166537,-10.733290,0.605156,0.203215
51.200639,-8.828186,5.748983,-6.483580
51.233162,-8.307129,4.286373,-9.163087
51.266501,-7.677731,5.963271,-10.374746
51.300781,-4.739342,18.841693,-12.674458
51.333343,-5.108810,14.385625,-11.933127
51.366556,-14.727560,18.761784,-8.465301
51.400322,-15.297699,11.867135,0.784728
51.433186,-7.160415,5.646178,7.519857
51.466952,-2.365556,4.074777,6.727498
51.500419,-0.777694,0.518513,7.850718
51.533115,-2.024669,4.224720,7.867777
51.566818,1.212557,7.558166,6.409956
51.600256,3.604150,5.114497,3.480845
51.633146,3.168240,5.225382,2.667984
51.667016,-5.704239,3.885778,-0.348069
51.700052,-14.015259,8.575738,6.442129
51.733010,-13.090915,7.781882,7.495765
51.767028,-12.181834,10.919745,1.223032
51.799930,-19.085013,18.364182,4.880605
51.832899,-16.651818,16.682645,10.378786
51.867095,-5.083371,16.375428,8.234851
51.900112,-3.447474,14.736837,5.160736
51.932839,-15.760246,1.432233,1.215101
51.966859,-13.859630,-0.463295,1.863204
52.000315,-4.478364,3.460194,-3.041643
52.033245,-9.833936,5.998438,-6.111418
52.066956,-4.797104,8.001109,-10.007821
52.100004,-5.226430,16.346696,-12.338211
52.133216,-6.084632,17.254281,-11.908885
52.167136,-8.044206,18.643865,-11.294451
52.199846,-14.479900,10.551773,-5.608318
52.232683,-14.235234,6.715676,0.538715
52.267298,-4.598378,5.591259,6.343963
52.299790,0.859699,3.293192,8.923359
52.333639,4.052331,3.650540,6.706548
52.366765,1.766086,6.726301,5.291973
52.399511,0.796400,4.214544,4.617981
52.433363,0.758839,2.136153,3.577813
52.467096,-7.027233,4.301337,-1.637393
52.499893,-14.469425,8.167961,0.697186
52.533680,-16.790388,6.118451,6.927870
52.566640,-15.991893,8.972741,1.939672
52.599846,-14.868822,11.417458,2.444866
52.633624,-13.995357,14.884685,5.130957
52.666632,-7.698232,14.675484,7.358692
52.699827,-5.386996,9.865660,5.636451
52.732814,-11.255993,7.947088,2.546923
52.766447,-12.454782,3.596818,1.489097
52.799753,-10.201309,6.712384,-2.566377
52.833534,-7.525394,6.164990,-6.535207
52.866489,-6.639059,6.344262,-10.564792
52.899847,-5.391336,14.166548,-12.413631
52.933444,-4.489139,19.796265,-11.761936
52.967020,-8.279445,18.003543,-14.609192
52.999759,-8.188462,12.893685,-8.922760
53.033663,-11.735150,9.640448,-3.204304
53.066588,-13.590423,9.713324,5.269976
53.099762,-5.677753,5.008699,7.454164
53.133670,-1.897323,3.104343,7.733099
53.166411,2.136602,5.846251,6.819977
53.199758,5.580036,7.895162,4.839752
53.233620,2.307494,5.713966,4.211102
53.266482,-0.583757,2.136452,4.872823
53.299760,-2.073303,5.423060,1.101671
53.333673,-12.972098,7.751205,1.251614
53.366455,-14.540356,7.416304,8.216894
53.399893,-13.327350,11.026889,3.070524
53.433663,-17.241112,14.730403,4.197934
53.466026,-14.213237,14.500252,5.932295
53.499725,-10.546985,19.126613,6.635168
53.533639,-7.640769,14.412711,5.953694
53.566011,-12.636299,6.702807,3.140706
53.599762,-13.116653,6.236071,-0.150092
53.633667,-9.425111,3.373700,-3.554319
53.666576,-9.199450,6.919640,-8.470240
53.700101,-7.140662,6.677517,-10.105538
53.733935,-5.565221,11.313306,-10.019194
53.766515,-0.750160,19.131701,-10.481591
53.799962,-1.430587,15.876518,-11.905294
53.833466,-11.340092,12.170611,-8.738250
53.866664,-11.967246,4.140620,0.643465
53.899942,-7.087090,3.296036,4.848731
53.933583,-3.525737,4.457115,4.500811
53.966531,-2.363311,4.145858,7.222218
54.001251,-3.822779,6.272583,7.737737
54.033268,-0.965047,6.880283,7.237331
54.066322,1.065308,4.237739,2.804608
54.101195,-0.847428,3.069925,0.966095
54.133007,-9.901724,3.777587,0.080209
54.166557,-14.647501,7.626403,6.752638
54.201195,-13.191175,6.743510,5.189767
54.233034,-11.561414,10.451812,-0.280431
54.266673,-14.040249,14.369913,2.192868
54.300945,-16.524921,17.882033,6.627536
54.333190,-10.023085,14.969532,5.765743
54.366932,-6.355336,11.005491,5.293021
54.400912,-12.252465,11.053077,2.929410
54.433201,-12.471094,4.356405,0.593484
54.467358,-6.166786,5.721897,0.041002
54.500207,-8.135040,3.740325,-6.325856
54.532930,-10.292143,5.164627,-9.066118
54.566690,-4.027939,12.201437,-9.681001
54.600623,-1.804245,19.518528,-11.872372
54.633332,-4.034374,15.612249,-13.705199
54.667032,-13.966027,12.629715,-5.423659
54.700445,-16.021073,5.779660,-0.943050
54.733192,-9.593310,5.783251,3.453161
54.766930,-3.483987,3.553122,7.435459
54.800374,0.346872,3.365021,7.855806
54.833200,1.109154,5.900571,5.627922
54.867041,0.614733,5.899075,3.300674
54.899968,-0.997520,5.862113,5.024262
54.933050,-2.847705,5.305441,3.909721
54.966935,-9.552607,10.048374,-2.054747
54.999896,-13.947321,5.714714,6.052459
55.033079,-17.614471,5.352130,5.177945
55.067024,-13.293232,7.812559,2.509812
55.099915,-17.278224,10.841781,4.803988
55.133338,-10.774442,11.789171,3.038949
55.166957,-7.454912,12.994096,4.384089
55.199804,-7.125399,11.975775,3.012313
55.233624,-6.753386,8.124265,2.328893
55.266717,-14.027380,5.853134,1.550301
55.299870,-13.867113,4.351467,0.291953
55.334313,-5.203385,5.909999,-7.258132
55.366408,-2.556949,4.236990,-10.290796
55.399763,-7.249153,6.294132,-10.907474
55.434215,-7.439050,18.074773,-13.075352
55.466537,-2.042626,18.188951,-13.038390
55.500233,-8.744835,14.444884,-12.929151
55.533447,-12.591556,6.771044,-3.988882
55.566453,-13.250584,4.618879,1.944311
55.600747,-8.709968,5.752275,5.437576
55.633204,-4.814014,5.527960,4.735900
55.666496,-3.066633,7.305120,6.431803
55.700237,0.724122,9.493797,7.490078
55.733453,2.794582,5.613706,3.366068
55.766566,5.139337,4.113834,2.313330
55.800291,-0.983453,4.027041,4.343686
55.833143,-10.511669,10.055856,4.530739
55.866679,-11.190300,8.456024,10.484583
55.900327,-16.817473,12.192309,6.091366
55.933309,-17.190533,18.652993,4.259437
55.966789,-17.824271,16.504869,6.458440
56.000243,-10.598462,14.988836,5.455832
56.033225,-8.517228,11.323033,4.046495
56.066671,-11.939113,6.389455,2.090213
56.100238,-13.504228,6.175166,-1.767433
56.133207,-8.018468,4.856961,-5.173157
56.166558,-6.253130,5.302747,-9.505619
56.200275,-5.325344,5.820512,-10.174523
56.233138,-1.208217,13.738420,-9.911301
56.266499,-0.534974,16.558441,-11.509338
56.300243,-5.725938,14.186002,-11.400249
56.332995,-12.296760,9.144082,-3.092970
56.366555,-10.364570,3.817242,-0.382038
56.400236,-6.294132,5.511649,3.489973
56.432914,-5.028153,2.082431,7.296740
56.466496,-1.774765,3.956560,6.503632
56.500241,2.600046,7.275042,6.621251
56.533105,3.885928,11.221126,3.870515
56.566429,2.579395,3.673585,5.765443
56.600249,-0.826628,7.470326,0.592137
56.633130,-17.491764,8.940867,2.040382
56.666490,-13.743358,8.270915,8.768029
56.700253,-13.391847,9.335326,3.286009
56.733006,-14.450122,18.666611,3.481593
56.766391,-14.668750,23.036035,5.804051
56.799411,-8.437169,16.430347,6.505727
56.833268,-9.716466,11.486144,6.104534
56.866121,-12.955937,2.842767,3.322522
56.900259,-12.050298,-0.921352,0.582859
56.933180,-7.426331,3.854952,0.009727
56.966476,-6.142993,6.274229,-3.441788
56.999866,-6.023129,5.814826,-6.827609
57.033164,-4.271109,16.298960,-10.051068
57.066669,-0.288063,15.776108,-11.166057
57.100114,-7.714393,17.079797,-12.132302
57.133132,-15.897917,11.562013,-5.582131
57.166384,-13.064278,5.716660,-2.822715
57.199885,-6.924877,2.191970,1.598486
57.233044,-1.065009,4.306874,6.774187
57.266497,3.449719,2.533305,6.213026
57.300301,3.817691,6.933856,4.855914
57.333216,3.800183,6.119349,6.175016
57.366427,2.134058,3.391059,4.440206
57.399971,-0.579866,3.016951,2.158749
57.433076,-12.818265,12.847296,-1.673158
57.466500,-21.046532,6.190429,10.157314
57.499967,-20.842270,11.501108,6.914103
57.533278,-12.352726,11.526547,-1.390632
57.566558,-13.430454,14.253491,4.660480
57.600244,-15.630056,11.658233,8.766084
57.632973,-4.571592,9.790390,3.998310
57.666290,-2.610372,5.115245,2.650476
57.700549,-10.765763,2.622193,2.580144
57.733274,-13.348749,0.791162,1.975437
57.766436,-11.391420,5.143228,-1.007995
57.800254,-5.271921,5.480374,-3.957158
57.833299,-2.875090,9.279209,-9.277114
57.866427,-7.036211,18.107994,-12.854179
57.900046,-6.603145,17.120799,-10.221810
57.933261,-10.276280,17.207143,-10.737031
57.966969,-16.134203,7.381737,-1.819209
58.000227,-13.144487,3.529628,1.786288
58.033304,-2.876586,2.579246,4.446640
58.067537,3.282418,2.027812,5.832334
58.100215,5.054340,6.912606,7.397599
58.133203,3.257278,7.339987,6.590724
58.167739,1.713711,4.556478,5.963271
58.199925,1.099427,2.448907,5.572105
58.233224,-3.801679,5.723394,-0.581213
58.267925,-18.156179,8.877418,4.105754
58.299914,-16.132258,12.940075,9.430199
58.333262,-10.497902,13.028364,2.650326
58.367361,-15.668963,17.992769,2.458933
58.399916,-16.219799,20.378227,5.521974
58.433682,-11.425239,16.807447,5.940975
58.467130,-9.527916,11.789919,1.980973
58.499932,-11.540314,3.314442,-0.629548
58.533648,-7.731153,2.138547,-5.359462
58.566816,-9.833188,3.464085,-7.619968
58.599985,-6.642650,5.369638,-9.260803
58.633304,-4.001303,7.107890,-7.702571
58.666965,-1.664179,13.467416,-8.328079
58.700042,-1.679443,16.566971,-9.926864
58.733620,-6.011606,11.069238,-8.267174
58.766900,-14.385775,10.025329,-4.515925
58.799450,-10.444329,4.918315,0.965945
58.833302,-4.905595,8.569603,0.873316
58.867229,-4.907540,9.672172,1.853478
58.900107,-5.454485,6.225895,5.449846
58.933605,-6.112316,9.099937,9.094999
58.966735,-4.123112,8.504358,6.452005
58.999315,-4.403244,5.733570,6.113064
59.033353,-7.822884,4.998374,6.505129
59.066664,-9.147973,3.519901,5.280750
59.100209,-10.487127,6.893751,0.303476
59.133594,-14.146646,5.106416,0.072278
59.166534,-13.494202,4.812966,-2.887959
59.200157,-13.601347,4.748620,-6.564238
59.233159,-16.335024,3.045982,-6.395889
59.266963,-14.992577,8.882207,-6.873849
59.300076,-8.013978,8.695303,-8.313713
59.333243,-6.259714,5.396574,-8.588907
59.366507,-8.505555,3.202359,-8.731965
59.400366,-5.358415,1.639937,-7.881993
59.433244,-5.863759,0.784129,-8.650859
59.466704,-6.542988,0.634037,-8.125313
59.500467,-6.583093,1.257300,-7.391464
59.533315,-8.093588,-0.753901,-8.182027
59.566556,-7.248255,-1.579481,-8.390031
59.600329,-10.108381,-6.513808,-8.117082
59.633364,-8.179483,-6.844070,-6.545682
59.666672,-4.701183,-8.312815,-7.353305
59.700349,-4.829876,-6.416989,-6.900186
59.733215,-5.108062,-4.137777,-5.613556
59.766554,-2.072555,-3.965089,-3.091623
59.800271,2.396382,-3.703214,-3.651737
59.833358,0.761683,-2.421971,-2.234917
59.866671,0.699132,3.004381,-1.312219
59.900223,-2.229381,4.062806,0.381141
59.933344,-3.850612,7.123453,-3.611633
59.966696,4.110692,15.214049,-0.129292
60.000266,-7.263369,14.294493,5.574200
60.032659,-11.665566,12.653209,5.972998
60.066368,-8.153446,9.574455,5.602931
60.099742,-7.457905,10.338831,2.844862
60.133141,-7.624458,13.996853,-1.695754
60.166416,-9.423465,13.097349,3.186347
