time_tick,acc_X_value,acc_Y_value,acc_Z_value
0.010329,-0.481102,-1.058873,-10.353646
0.036554,0.010924,-0.695241,-9.997795
0.070150,-1.000812,-0.996921,-9.529113
0.103227,-0.508187,-0.833661,-9.574305
0.136807,-0.566847,-0.699132,-9.128669
0.169898,-0.810915,-0.799692,-9.343107
0.203656,-1.314015,-0.683419,-9.348494
0.236743,-0.897558,-0.573581,-9.351487
0.270231,-0.491727,-0.732053,-9.171616
0.303131,-0.779041,-1.443306,-8.918869
0.336466,-1.643528,-1.881910,-8.884601
0.370091,-1.187716,-1.292466,-10.899843
0.403197,-1.869340,-1.202381,-10.658618
0.436511,-2.260057,-2.112210,-9.315124
0.470071,-0.711851,-1.967655,-9.564878
0.503183,-0.681923,-3.754542,-9.959486
0.536698,-0.483347,-3.928726,-9.513999
0.570206,0.512527,-3.851211,-9.310036
0.603235,1.880862,-2.678160,-8.044954
0.636910,2.653169,-2.032600,-7.587496
0.670016,2.706143,-3.392855,-5.940077
0.703628,1.235003,-4.584162,-4.017913
0.736471,-1.677946,-7.590938,-4.487044
0.770055,-5.080228,-9.507415,-3.800781
0.803120,-9.666934,-8.980223,-2.524925
0.836466,-14.099059,-8.362946,-2.329641
0.869977,-18.134630,-4.987150,-1.244880
0.903649,-14.438599,-0.255590,-3.112873
0.936468,-12.567763,1.608213,-3.661015
0.969823,-14.552178,2.162341,-1.856770
1.003641,-17.124391,0.867929,-1.286181
1.036991,-13.985929,1.180384,1.505707
1.069833,-13.180251,2.452798,3.311449
1.103360,-9.348494,3.119607,4.269014
1.136627,-6.459338,2.948265,3.200863
1.170185,-8.570351,0.815105,0.693894
1.203144,-11.776900,3.036854,-1.183077
1.236491,-14.051024,3.931270,-0.125401
1.270040,-11.064001,7.546943,2.932852
1.303168,-10.502241,8.651158,15.771319
1.336706,-2.790093,8.208215,19.142176
1.370119,1.979776,2.344306,19.924659
1.403708,0.685215,-23.169217,19.582875
1.436706,4.446491,-27.574706,18.774952
1.470057,4.952882,-31.024724,4.082709
1.503162,12.316213,-16.780361,-14.660220
1.536553,6.518297,-11.859802,-8.526505
1.569916,-6.180553,-12.713515,-14.792654
1.603639,-18.578022,-13.039886,-26.034431
1.636464,-12.404802,-0.168049,-17.649188
1.670048,-25.763128,-15.561520,-25.142409
1.703126,-14.432913,-8.436570,-15.438513
1.736923,-4.966051,-5.350633,-4.525053
1.769972,0.554577,-12.094143,0.787870
1.803135,-0.082753,-20.617356,-6.594016
1.836532,-0.293300,-18.406980,5.667278
1.869846,-3.027726,-13.507820,-2.450553
1.903143,-3.351254,-0.794754,-4.903201
1.936905,-3.184851,-12.310527,-5.977637
1.969836,-1.325537,-17.970771,-0.712300
2.003625,-13.352042,-11.020904,-0.434563
2.036457,-10.273138,0.304823,0.864338
2.070756,-11.321536,1.266428,1.375069
2.103142,-11.866237,8.560923,3.731945
2.136524,-18.129542,-4.031531,5.639145
2.169816,-12.903113,-14.150387,3.903885
2.203519,1.698597,-22.939216,-2.678459
2.236624,4.255097,-22.371770,-4.275598
2.270286,-2.304950,-28.035606,-2.401320
2.303405,1.281393,-23.202438,-6.415343
2.336808,4.005193,-12.382056,-6.107976
2.369846,3.003184,-6.798129,-4.510238
2.404374,1.862606,-4.954379,-0.143059
2.437059,1.936230,-6.555857,-0.353756
2.470464,1.740796,-9.375580,-2.165932
2.503451,-0.377549,-11.204366,-1.035080
2.536460,-0.712749,-9.236861,-1.760100
2.571274,-0.798794,-8.631405,-3.056158
2.603440,-0.214139,-10.600257,-2.071208
2.636522,-1.667322,-8.702934,-3.310401
2.670775,-2.441724,-9.120588,-2.105327
2.703124,-4.812816,-10.336437,-2.135554
2.736763,-4.315553,-9.152462,-3.192034
2.771067,-5.026806,-8.368034,-2.535700
2.803503,-4.684273,-8.898967,-2.435439
2.836453,-6.098100,-7.792806,-1.399311
2.870035,-6.124287,-8.555237,-1.400957
2.903502,-5.922868,-9.910104,-0.563106
2.936449,-4.941659,-9.246438,-1.302791
2.970631,-5.042369,-8.010836,-1.179186
3.003581,-4.653297,-8.340948,-2.050707
3.036996,-4.302684,-5.205180,-1.776112
3.070091,-2.179699,-8.737801,-2.163538
3.103523,1.826093,-14.930026,-3.608340
3.137276,3.730449,-12.661888,-6.295329
3.170267,-2.611269,-12.637646,-7.537216
3.203362,-10.894755,-10.545338,-9.480180
3.237330,-13.880730,-8.538178,-10.526633
3.270377,-16.313027,-9.490505,-8.070693
3.303300,-19.582575,-8.355763,-3.218072
3.336469,-24.297226,-8.387038,1.436423
3.370702,-21.563549,-10.238870,8.311469
3.403161,-19.705881,-13.503630,14.455060
3.437373,-11.830322,-10.671338,14.765270
3.469841,-4.310465,-12.105965,13.938193
3.503135,2.342810,-14.733545,16.977591
3.536937,19.374572,-13.314930,13.281709
3.570361,14.678926,-16.384257,-3.743468
3.603100,4.276795,-11.313755,3.540552
3.637305,2.867009,-11.689359,-5.286586
3.669787,-2.116251,-10.119604,-6.518147
3.703941,-1.984565,-6.250287,-9.170718
3.736515,-5.353925,-6.585936,-17.748252
3.769788,-16.173859,-4.681580,-22.053629
3.803643,-15.883851,-4.888386,-18.922650
3.836496,-11.836757,-9.500831,-11.274100
3.869827,-4.337401,-13.052606,-3.186647
3.903142,0.916114,-18.618875,-4.693701
3.936810,3.415301,-17.946080,3.045683
3.969837,4.554533,-9.143184,-11.489137
4.003115,7.577320,3.939949,-7.219075
4.036516,0.140365,-14.288956,-5.675508
4.069804,0.977767,-11.776152,-3.156269
4.103574,-4.835263,-15.874722,-4.555281
4.136738,-15.400354,-13.501834,-5.180788
4.169785,-26.139031,-1.917076,-3.651288
4.203654,-22.363989,0.333404,-6.319721
4.236580,-21.975067,-5.734767,-2.965774
4.270225,-24.529921,-27.158998,8.015176
4.303327,-17.609832,-27.721954,11.805332
4.336735,-16.377822,-22.000207,7.959808
4.370150,-5.203684,-7.649897,9.255267
4.403644,7.396252,-4.446790,2.481080
4.436912,13.014297,-10.944885,-1.841356
4.469773,4.432723,-9.889603,-1.358309
4.503476,2.659903,-13.915747,-0.184959
4.536925,5.908801,-7.224911,6.384367
4.569758,-0.905639,-10.541448,-6.229486
4.603502,-0.407328,-4.116378,-2.164585
4.636600,-9.704644,-6.515903,-11.660328
4.669783,-16.748039,-5.046559,-17.643352
4.703927,-13.285450,-6.250436,-14.943045
4.736392,-12.539630,-12.065860,-13.016542
4.769771,-6.950316,-16.291927,-7.335348
4.803538,-3.520350,-16.026460,-1.110351
4.836432,-2.388152,-18.329166,-3.367266
4.870356,3.246803,-4.881054,-8.739298
4.903701,1.820406,-0.272949,-7.480801
4.936940,0.209350,-7.745070,-4.839902
4.970332,1.665975,-14.258728,-4.839752
5.003104,-3.579010,-11.143012,-7.685362
5.036718,-7.619968,-0.572833,-3.435802
5.069756,-9.634312,-3.932916,-2.084077
5.103545,-4.907391,1.744837,-0.776048
5.136773,-9.774827,-1.284535,-3.218072
5.170182,-13.811296,-16.338915,-2.679058
5.203095,-10.169735,-19.462562,-3.296634
5.236779,-13.378229,-19.324741,-0.415558
5.269772,-16.509208,-19.625672,-4.350869
5.303151,-18.885090,-9.110712,-8.474280
5.336769,-19.008096,-0.345675,-5.448500
5.369741,-16.865508,4.244024,-2.782910
5.403099,-17.394945,3.549830,4.047542
5.436409,-15.500016,-7.316044,10.966134
5.469733,-5.222838,-14.673838,15.056026
5.503047,-0.767519,-14.310355,16.044417
5.536397,-1.555090,-27.183838,19.352873
5.569752,9.797423,-19.232560,18.248060
5.603069,12.940374,-14.095917,8.868440
5.636423,14.153230,-21.990330,-14.355248
5.669765,16.350288,-11.169200,-13.607183
5.704082,2.685492,-18.982357,-20.657910
5.736429,-4.151993,-23.511301,-24.490714
5.769777,-12.898474,-20.850051,-11.598526
5.803094,-6.320469,-12.138886,-15.537427
5.836922,1.075334,-11.241627,-3.645302
5.870128,-7.766918,-7.625505,-3.651587
5.903196,-6.648337,2.451451,0.174633
5.937166,0.277139,-11.796653,-3.866923
5.970102,4.677240,-24.226744,-6.590425
6.003237,1.389584,-17.872905,-1.226773
6.038378,-4.390225,-10.489821,-6.053656
6.069746,-14.868822,-1.172452,-2.937192
6.103617,-16.360314,1.949249,-2.293278
6.137274,-6.802918,-1.488349,-5.586022
6.171022,-11.544205,-14.172983,-3.131129
6.203077,-8.930841,-23.245984,-2.563982
6.236577,-7.919853,-23.173108,-4.482554
6.269759,-6.306852,-28.938701,-5.970454
6.303086,-9.259307,-12.414080,-10.622405
6.336742,-6.680211,-3.221813,-11.384237
6.370606,-8.777606,-3.380135,-10.451063
6.403198,-4.563960,1.492539,-7.476162
6.437556,-7.770958,-0.134379,-3.611034
6.469775,-9.695067,-0.101608,-0.401043
6.503214,-13.817431,-4.073730,1.799606
6.537734,-19.881562,-11.523105,8.464254
6.569962,-20.004419,-11.943303,11.605409
6.603143,-13.342464,-12.513143,14.182859
6.637710,-4.305377,-1.874876,14.701821
6.669922,3.281371,8.237844,15.033729
6.703227,1.160631,-1.551648,17.820230
6.737745,14.723818,-27.193565,8.459615
6.769782,4.313159,-30.313920,0.845034
6.803083,6.760719,-20.377479,-4.935224
6.836679,11.893921,-13.841374,1.797511
6.869814,6.347854,-17.617165,-5.006754
6.903085,1.641733,-12.762299,-12.404802
6.936892,-0.748065,-18.197929,-9.514598
6.969813,-13.641601,-17.625694,-17.421282
7.003091,-17.339128,-15.483406,-23.285191
7.037302,-15.072935,-18.052775,-11.809223
7.069975,-20.828203,-13.012202,-10.079350
7.103431,-20.339918,-7.846079,-13.699662
7.137138,-13.028813,-2.174162,-9.059833
7.169911,-12.298256,0.128094,-7.185405
7.203587,-10.749900,-0.190346,-9.623239
7.237256,-8.642030,0.717239,-7.205757
7.270571,-6.932210,1.882957,-3.922291
7.303061,-9.136300,-0.003442,-5.729080
7.337288,-5.771429,2.616956,-5.695710
7.369774,-8.500617,0.647804,-7.262621
7.403089,-10.456750,-0.180320,-8.271514
7.436682,-5.031594,0.356300,-9.754475
7.469777,-0.742678,-1.807537,-11.443944
7.503085,2.148424,-3.180960,-11.246715
7.537277,1.419962,-4.184466,-7.670249
7.569734,4.859954,-1.780601,-4.757598
7.603205,5.712171,-0.590341,-2.094852
7.637115,2.198405,-2.981935,-1.922912
7.669789,1.133096,-3.937705,1.840159
7.703214,-2.108319,-2.915793,5.094145
7.737142,-7.868825,-3.767261,6.932958
7.769817,-9.458482,3.090276,10.557310
7.803584,-10.409313,4.995381,10.366814
7.836945,-9.991809,4.199580,6.447366
7.870131,-12.036081,5.643185,6.974409
7.903215,-15.133092,5.915835,5.651266
7.936958,-13.267493,3.773845,5.975393
7.969788,-12.788786,5.402410,6.651928
8.003295,-10.470068,6.666743,5.687928
8.037346,-7.771258,7.500104,5.860018
8.069805,-6.717771,6.656717,7.316642
8.103296,-4.614091,7.322029,7.762129
8.136993,-2.711979,9.176105,8.372673
8.169871,-2.406408,7.798642,8.455575
8.203264,-2.633866,6.549124,7.830067
8.237081,-2.003270,4.844541,9.864762
8.269747,1.859164,4.629354,10.870363
8.303152,6.418485,6.016095,12.073642
8.336919,8.231110,4.902752,14.029475
8.370474,9.387850,5.769633,14.690747
8.403164,9.615158,5.857324,16.683542
8.436991,14.129137,-0.063299,19.162528
8.469780,9.973253,-4.516074,14.249450
8.503391,8.075781,-7.556071,12.587366
8.537004,3.633929,-26.081718,29.945948
8.569754,-9.387850,-36.372514,5.645729
8.603080,6.136259,-31.620602,-1.066655
8.636726,7.489779,-17.684504,-3.606096
8.669764,3.781627,-16.658702,-12.751674
8.703154,7.000147,-22.862000,-19.807788
8.737301,-5.776667,-13.366258,-3.433857
8.769758,-14.391910,-13.677964,-12.480371
8.803204,-10.258024,-8.403798,-9.897385
8.836941,-25.448280,-7.429174,-13.822519
8.869823,-19.187668,-20.068466,-13.880880
8.903147,-10.844325,-22.900459,-10.373548
8.936918,-7.814355,-28.497404,-4.238188
8.969903,-5.939628,-22.510489,-3.476804
9.004197,-4.937768,-9.048011,-3.375197
9.036660,-0.832613,3.365919,-3.051369
9.069769,-7.153980,1.664927,-3.388665
9.103928,4.957072,-18.352361,-2.164436
9.136815,-2.172666,-12.369636,-1.950596
9.170168,-0.222220,-8.129203,-1.479520
9.203252,-10.408266,-1.774466,2.755675
9.236544,-7.654985,5.010944,0.546945
9.269719,-5.495039,-2.038436,-2.216661
9.303035,-4.181024,-18.674542,-0.324875
9.336455,3.495360,-16.541831,-3.119307
9.369755,6.137755,-14.170289,-6.604641
9.403137,3.915408,-24.580350,-5.967162
9.436576,3.651138,-18.099015,-9.601391
9.469790,-1.759053,-10.726107,-12.284190
9.503748,-19.271168,-3.845824,-8.684828
9.536466,-23.099484,-4.705971,-8.134142
9.570062,-21.872262,-6.160800,-4.905745
9.603681,-22.484451,-8.388235,0.394459
9.636501,-25.449028,-17.135165,9.064472
9.670215,-24.655770,-23.396675,14.615327
9.703605,-14.183308,-18.273948,16.549163
9.736837,1.621381,-8.288124,15.298896
9.776480,2.421073,-24.370701,19.713663
9.803563,18.755349,-26.972243,7.748063
9.837426,8.013230,-21.349260,-4.822244
9.870037,11.342786,-16.016883,-5.925711
9.903299,1.628863,-9.134954,-6.385115
9.938025,7.121657,-6.686795,-9.498586
9.970180,2.882722,-8.204773,-13.205391
10.003708,-7.220272,-10.318031,-12.580034
10.037946,-20.016689,-10.255630,-18.348769
10.069763,-14.305716,-9.547370,-17.743613
10.103518,-17.697373,-14.060751,-13.729291
10.138029,-22.646066,-3.491769,-17.957154
10.169743,-15.908392,-2.795929,-16.065816
10.203430,-11.880154,-0.289110,-9.736668
10.238200,-7.831115,1.739001,-5.594402
10.269880,-4.107100,1.477126,-3.434006
10.303340,-3.397344,-1.081170,-2.968617
10.337775,-8.059919,-4.200777,-3.893111
10.369759,-10.947130,-8.205072,-6.525779
10.403373,-6.859184,-3.507631,-6.577406
10.437677,-7.671595,-2.208131,-8.990249
10.469910,-5.741351,-2.616208,-11.532383
10.503183,-2.016738,-0.860447,-11.296995
10.537382,2.976697,-0.791761,-14.236431
10.569979,7.298535,0.051776,-12.140383
10.603517,5.612508,-2.405361,-10.987683
10.636838,4.380199,-2.233870,-9.196906
10.669773,5.262793,-3.562550,-4.494227
10.703756,3.336140,-5.564174,-0.410770
10.736752,-0.666061,-6.625441,1.601030
10.769878,0.485142,-8.608061,2.322608
10.803756,-1.562572,-8.109301,6.440932
10.836744,-6.402922,-7.695987,9.047861
10.870016,-7.398497,-3.103595,9.594058
10.903947,-13.643247,-5.922718,10.251589
10.937225,-19.428593,-1.359207,3.679570
10.969965,-22.676892,3.365470,4.579074
11.003288,-22.538173,2.242699,1.973491
11.036841,-22.343787,2.906665,4.780194
11.069780,-22.065301,0.469580,5.290626
11.103762,-17.588284,1.254906,5.353626
11.136549,-14.432763,-0.487537,6.068620
11.170115,-12.035333,-1.166317,5.152207
11.203939,-6.169779,0.208752,4.193295
11.236734,-7.602909,0.194386,9.438130
11.270120,-9.707488,2.728141,9.449802
11.304164,-4.640278,1.501817,10.179611
11.336638,-4.500063,1.496729,10.738079
11.370164,-4.391721,2.806105,11.102010
11.403884,-2.065222,3.174974,8.989052
11.436746,-3.662361,4.698789,7.018105
11.469839,-2.310786,4.664969,5.739106
11.503952,4.849180,7.222517,5.120183
11.536553,9.479282,9.480479,8.160778
11.570226,8.265379,5.912393,9.314675
11.603937,5.310978,0.465539,8.640533
11.636442,2.911154,0.422592,6.239213
11.669820,4.559022,2.711231,5.708280
11.703812,0.288512,1.872482,9.850846
11.736597,0.277887,-6.247743,0.056116
11.770336,-2.178951,-10.564642,-8.470539
11.803428,-4.462652,-16.714070,-8.737801
11.836526,-12.309479,-11.557523,-9.170120
11.869743,-24.549374,7.959957,-3.812902
11.903616,-15.846889,0.264569,-3.955811
11.936720,-16.028256,1.008145,-2.768095
11.969933,-26.750024,7.091879,2.685343
12.003879,-17.648590,3.856748,3.958355
12.036630,-16.325746,3.608191,7.382036
12.069762,-13.912005,5.768885,10.070671
12.103380,-10.842380,7.431119,12.615948
12.136427,-6.920388,8.620332,13.089867
12.169856,-3.968232,7.274293,14.243614
12.203927,-0.880649,6.160501,15.287075
12.236638,5.044913,5.853733,14.184655
12.270665,8.578282,4.071934,13.078345
12.303559,4.244323,-0.935268,13.061285
12.336937,8.969000,-5.450595,15.845991
12.370333,3.126340,-16.092602,11.232499
12.403650,4.508293,-12.362902,0.122109
12.436875,7.917159,-13.392595,-6.612572
12.470187,7.270403,-12.330728,-1.791825
12.503573,-4.648209,-15.983962,-12.578238
12.536777,-2.648381,-9.979987,-9.206184
12.570810,-8.202379,-10.099402,-10.219715
12.603595,-19.016326,-12.060174,-23.594802
12.637035,-15.107204,-8.800801,-22.846438
12.670660,-16.113702,-11.202421,-15.483107
12.703259,-12.920022,-20.427010,-4.524604
12.736610,-6.937746,-18.324377,-0.555924
12.770636,-5.077834,-10.629587,-2.619051
12.803494,-1.359955,-3.033263,-0.691650
12.836912,-3.968381,-1.284834,-5.393431
12.871179,-4.725275,-8.418463,-4.864892
12.903571,-2.791888,-24.217167,-5.443262
12.936861,1.839411,-6.086877,-5.782353
12.971327,1.895826,-3.248299,-7.386525
13.003367,-2.112210,0.250353,-3.148787
13.036968,-5.387445,-3.032514,-2.391594
13.070290,-8.906150,-7.940653,-3.395099
13.103358,-17.949073,-16.848898,-3.695881
13.137090,-21.682066,-14.599016,-5.321902
13.169934,-20.445267,-24.433700,-1.296955
13.203365,-21.936459,-19.783546,0.927038
13.236958,-25.378396,-8.724932,-1.895976
13.270224,-23.367644,-2.981785,2.828551
13.303289,-21.962197,-2.889755,6.043779
13.336769,-16.708982,-6.025673,15.359502
13.370866,0.025439,-10.740024,20.253275
13.403508,5.307536,-30.988510,23.644633
13.436866,10.277627,-27.440626,24.841328
13.470093,16.002517,-19.215800,8.750970
13.504631,7.190643,-23.855181,-6.327353
13.536721,6.526677,-15.397960,-1.968104
13.570983,-1.610757,-14.747612,-20.337674
13.604528,-1.284236,-9.200797,-20.443172
13.636663,-8.041363,-6.187287,-19.736408
13.670181,-22.466045,-8.773117,-25.397551
13.704356,-23.437976,-8.762043,-14.629543
13.736709,-21.833056,-9.720357,-12.235855
13.769764,-7.731602,0.478558,-3.118858
13.803858,-8.934731,7.053869,11.082706
13.836460,-3.819487,1.201184,7.837400
13.870276,7.255588,5.809588,-2.492752
13.903755,-2.815382,-4.688762,1.241887
13.936755,-0.087541,-24.755433,-3.251442
13.970386,6.226044,-13.988473,-6.113363
14.003696,5.234510,-5.625677,-5.877376
14.036808,1.419214,-2.708986,-4.985055
14.070513,-4.415514,-7.286115,-3.387767
14.103439,-4.898412,-19.418716,-1.935781
14.137097,-2.740561,-19.404949,-1.518577
14.170155,-2.387553,-19.135143,-2.904719
14.203419,-5.320106,-19.351078,-4.348025
14.236753,0.543354,-14.296887,-3.936358
14.270674,1.805293,-10.863030,-3.944588
14.303425,-0.795801,-10.309800,-3.250843
14.336598,-1.172004,-10.118108,-0.231647
14.370771,-3.161207,-6.880882,0.157574
14.403493,-1.588161,-4.673200,-1.172901
14.436729,-0.680875,-4.667364,-1.491791
14.470231,-2.094702,-7.505342,-1.151054
14.503364,-2.038287,-8.913931,-0.543653
14.536741,0.362435,-9.699706,-0.491727
14.570348,1.342447,-12.044162,0.183762
14.603387,0.289110,-12.543670,0.321433
14.636731,0.225662,-14.030972,2.187930
14.669787,0.257236,-11.871624,1.220039
14.703420,1.466651,-9.667234,1.979477
14.736919,1.140130,-8.384345,0.770960
14.769958,2.547372,-8.218540,2.064175
14.803565,2.406109,-9.756421,1.738552
14.836677,3.459895,-9.575353,0.213840
14.870344,3.945935,-12.284788,0.857454
14.903574,2.789494,-12.999034,-1.688571
14.937112,3.406622,-15.223327,-1.320000
14.969751,-1.497178,-14.287310,-1.592949
15.003406,-2.669032,-12.545765,-3.883833
15.036959,-2.034246,-11.653744,-4.027640
15.070825,-2.820770,-11.237437,-6.454400
15.103479,-3.317135,-10.989179,-4.986552
15.136920,-4.664670,-12.243636,-4.686219
15.170419,-4.800995,-9.472847,-1.482064
15.203610,-5.688677,-8.714008,0.648403
15.236906,-4.639231,-8.944159,1.435974
15.270679,-1.450040,-11.898859,0.600368
15.303443,-4.265273,-9.354929,0.912672
15.336926,-5.320405,-6.080143,-2.644640
15.370784,-6.473404,-2.699858,-4.178630
15.403450,-9.475990,-1.897024,-5.258004
15.436921,-12.835025,-1.322245,-5.488305
15.470695,-18.791413,-0.257087,-3.653533
15.503565,-24.586336,-4.676342,1.012035
15.536779,-24.622250,-3.837294,9.249730
15.570452,-17.615668,-3.038799,13.793638
15.603446,-9.638053,-2.601393,14.900846
15.636752,0.191393,-5.236156,16.739210
15.673410,17.737478,-23.279953,11.871025
15.703251,16.501876,-18.237884,5.910148
15.736808,3.529179,-20.127126,-1.876971
15.770407,5.783850,-10.491916,-1.311770
15.803408,2.753730,-10.342273,-4.297297
15.836752,-6.975157,-12.624926,-15.198187
15.870277,-17.967928,-2.107871,-20.497642
15.903718,-19.979428,-6.516352,-22.128750
15.936751,-15.906746,-3.447025,-16.507113
15.970031,-3.842382,-4.683974,-6.309096
16.003431,-4.578925,-8.815466,-0.399846
16.036895,-5.556243,-20.157653,0.105798
16.070242,6.476547,-4.124309,-6.759821
16.103451,7.276239,0.539762,-8.014727
16.137198,5.792529,-16.224737,0.084099
16.170456,1.205224,-9.657058,-2.127025
16.203548,1.918123,-13.246094,-5.760805
16.237139,-0.513126,-5.998737,-3.807665
16.270389,-9.882869,0.759288,-1.495382
16.303566,-18.915617,0.473919,-2.696117
16.336953,-20.037340,-6.946875,-4.851873
16.369868,-25.619172,-21.280873,-0.103403
16.403590,-26.826341,-19.731171,4.803090
16.436894,-28.372153,-22.538921,5.824103
16.470277,-25.853064,-10.649490,3.004381
16.503388,-22.357853,-8.623474,5.551454
16.536880,-5.977936,-6.360873,5.820362
16.570232,-1.062465,-5.049252,13.476993
16.603447,7.759735,-27.043922,15.751267
16.637591,14.790410,-15.979921,9.720955
16.670177,5.375324,-17.496852,2.242699
16.703585,9.197205,-9.008356,-0.403288
16.737453,2.651374,-8.756806,-5.042369
16.769948,-1.314164,-5.301850,-10.189787
16.803585,-7.978812,-6.011456,-15.840005
16.838052,-11.108744,-3.291097,-19.631658
16.869810,-7.847126,-2.318269,-18.150792
16.903422,-5.332826,0.420048,-9.021375
16.937437,-6.157957,-6.382870,0.542605
16.970440,-6.840927,-14.568190,-5.411538
17.003669,-2.149471,-13.841823,-2.443969
17.037444,4.778249,-8.951940,-3.580208
17.069825,2.859228,-6.123689,-7.464489
17.103482,3.155670,-24.274630,-2.258711
17.137364,-0.770063,-12.132302,0.407777
17.169845,1.074586,-9.686687,-2.682350
17.203462,-1.832827,-5.671318,-2.446064
17.237254,-14.008824,3.034460,0.707063
17.270099,-17.144143,-4.728567,-5.049851
17.303689,-12.720099,-15.579327,-6.473554
17.337082,-22.752611,-20.498091,-1.103168
17.370570,-26.086507,-21.449521,3.837294
17.403409,-21.988385,-23.893789,1.425798
17.437006,-29.407383,-11.329318,2.027363
17.470765,-24.514657,-7.945741,2.080037
17.504082,-16.368245,-5.170912,6.271386
17.537003,-8.312366,-9.515047,13.004421
17.570531,-0.805378,-18.494222,15.821449
17.604526,3.578711,-24.085032,18.876859
17.636858,17.327755,-19.364546,19.448196
17.670116,11.782137,-17.853750,4.289814
17.704059,3.915707,-14.859844,-3.074414
17.737035,4.486894,-9.800566,-5.371883
17.770175,-2.780516,-10.859738,-18.639525
17.803507,-8.687521,-6.709840,-22.216441
17.836861,-6.028067,-3.457800,-19.046554
17.870238,-5.278206,-2.961584,-16.499033
17.903649,-4.303731,-3.729102,-6.802768
17.937284,-9.268136,-13.435093,1.278849
17.969791,-9.458182,-13.611971,-3.220765
18.003942,0.828124,-11.300287,-5.556542
18.037454,2.251378,-0.089187,-4.291909
18.069866,-2.015690,-29.247714,-3.004681
18.103949,0.100111,-7.366623,-6.211080
18.137332,0.948138,-9.985973,-7.072874
18.170124,-2.845311,-3.782525,-0.916114
18.203681,-13.174715,-1.138184,-1.340651
18.237082,-11.968593,-5.473939,-4.199729
18.269724,-13.429557,-9.123282,-5.608767
18.303570,-23.332478,-25.904691,-2.340865
18.336533,-23.454437,-19.837417,1.114541
18.370119,-25.443341,-21.135420,1.611505
18.403550,-22.609403,-13.397533,-1.110051
18.437678,-25.022845,-8.666272,2.878532
18.470098,-16.957539,-8.091044,7.408224
18.503660,-5.878574,-5.593055,14.020646
18.536978,2.409251,-16.248231,19.080074
18.569785,0.138420,-21.968931,15.467544
18.603399,19.281494,-14.666954,21.535416
18.637351,5.815125,-20.114107,-2.607079
18.669823,2.974154,-17.238568,-7.936314
18.703632,5.322949,-10.219266,-8.786884
18.737550,-5.135746,-8.148358,-20.610772
18.770176,-9.832290,-2.559194,-20.514252
18.803518,-6.658513,2.624887,-13.205541
18.836901,-7.034715,-0.589444,-10.722516
18.869787,-4.836161,-5.833830,-10.148036
18.903561,-3.112723,-11.394413,0.260079
18.936799,-4.425391,-14.777989,-3.258924
18.969776,0.237783,-6.194619,-1.915579
19.003704,0.549938,-4.110243,-6.290690
19.036780,-0.409573,-19.498326,1.579032
19.070105,-0.547544,-9.201994,-4.930735
19.103692,0.944397,-13.057544,-4.463101
19.136864,-0.071829,-6.651180,-3.655777
19.170173,-4.839902,-4.631898,-3.956260
19.203308,-5.247529,-4.100366,-4.171447
19.236767,-11.885840,-9.417629,-3.799584
19.270272,-22.990843,-27.539240,-4.323185
19.303153,-24.024876,-24.054954,-0.870174
19.336951,-24.093113,-26.290021,-1.956731
19.370443,-21.544544,-17.124840,-3.839539
19.403383,-26.194549,-11.224119,-0.346124
19.436941,-18.023146,-9.327694,2.186433
19.470076,-15.689165,-9.366302,7.096817
19.504121,-4.779895,-13.099145,9.648977
19.536726,-4.102012,-19.510447,13.794087
19.570649,0.433965,-23.912195,14.207251
19.604453,17.411555,-15.656992,16.126721
19.636784,11.205114,-12.028899,9.701352
19.669906,8.744984,-11.166955,-1.839860
19.704653,0.928534,-11.580119,-6.246994
19.736610,-4.644468,-5.100430,-18.207806
19.770605,-6.044228,-1.884454,-20.493602
19.803733,-4.319294,-2.218756,-19.111499
19.836764,-7.446083,0.043546,-13.427911
19.870629,-7.099361,-5.864956,-7.995572
19.904021,-9.050854,-14.719778,-2.261255
19.936741,-7.936164,-12.585570,-5.698254
19.970529,-0.321283,-7.977316,2.218307
20.003480,1.239193,-7.921948,-7.585401
20.036792,0.641070,-19.219542,-6.470860
20.070400,-0.351960,-15.788229,-3.028624
20.103426,0.575676,-12.363500,-3.941595
20.136705,1.263884,-7.025587,-5.182435
20.170521,-13.106328,-0.140365,-0.780238
20.203316,-14.008076,-4.461305,-2.661101
20.236789,-7.265315,-8.755758,-7.927784
20.270550,-17.820979,-21.079304,-4.311812
20.303877,-26.725183,-24.900736,4.162917
20.336850,-22.145809,-24.786558,3.520650
20.370148,-23.218749,-16.833784,1.442408
20.403345,-25.829420,-10.426821,0.725020
20.436986,-17.459292,-8.592648,1.621381
20.470011,-11.169649,-6.420131,4.405189
20.503362,-3.769655,-8.302041,6.638760
20.537496,-3.269998,-14.641814,10.839387
20.569797,-0.758390,-14.707358,12.682988
20.603569,9.787696,-14.802082,12.853132
20.637119,4.585359,-13.282308,4.828379
20.670152,3.525289,-10.007222,-0.605755
20.703993,4.059514,-10.045531,-6.721812
20.736662,-4.235494,-8.473981,-16.015985
20.769909,-5.942471,-8.356661,-17.397339
20.803874,2.971909,-2.257813,-12.156694
20.836721,-2.069113,-10.525286,-9.990013
20.870239,-4.839004,-12.486058,-8.017271
20.903863,-5.106416,-13.767899,-2.135854
20.936453,-2.129868,-7.884986,-4.583115
20.969757,-0.122857,-4.125806,-8.454228
21.003860,2.736221,-16.166676,3.034609
21.036670,-0.550686,-14.014062,-2.085424
21.069800,0.291205,-13.611822,-3.504039
21.104034,0.788768,-7.449525,-4.381994
21.136666,-0.883941,-3.358287,-1.628564
21.170282,-5.088608,-5.821111,-3.648894
21.204075,-7.486337,-15.925152,-3.779382
21.236713,-11.798897,-31.991118,-4.175786
21.270126,-24.328950,-29.820697,-1.850036
21.304243,-19.091298,-27.538791,-6.539097
21.336659,-15.183821,-19.863305,-6.269591
21.370103,-21.310353,-9.595854,-2.910555
21.404237,-13.600299,-4.794560,0.049382
21.436718,-10.605345,-4.167556,0.713198
21.469904,-3.845225,-8.418314,6.391699
21.504128,7.966242,-12.068704,21.042043
21.536427,22.705923,-12.046407,20.823714
21.569808,8.533389,-10.043586,-4.228012
21.604049,0.289559,-6.030910,5.399118
21.636669,-4.746974,-6.404868,-1.616892
21.670032,0.280730,-5.215655,-2.574457
21.704111,-7.587346,-9.957242,-10.479196
21.736681,-10.637070,-10.762321,-11.155582
21.770344,-11.721532,-6.035100,-10.937403
21.803863,-13.600299,-1.811877,-9.958140
21.836715,-19.236152,-3.182606,-9.360615
21.869828,-18.782734,-5.624779,-10.921840
21.903932,-12.710522,-7.457606,-10.602652
21.936717,-12.856424,-8.800801,-9.625334
21.970341,-12.042965,-8.381053,-8.121123
22.004007,-8.216146,-9.645685,-7.160864
22.036715,-8.522465,-9.160842,-6.189681
22.070434,-7.558465,-8.284084,-5.935737
22.103439,-3.824574,-8.297103,-4.854716
22.136667,-3.939351,-8.998629,-5.152506
22.169932,-3.161955,-9.542431,-4.759544
22.203877,-0.623712,-10.279273,-5.378467
22.236658,0.263821,-10.144595,-6.737524
22.270163,2.753879,-8.218391,-6.429559
22.303865,4.226066,-7.720678,-5.715163
22.336703,2.075398,-8.051090,-7.878701
22.370324,4.740090,-7.173733,-5.988711
22.403852,6.196864,-6.586834,-4.483452
22.436715,6.019687,-4.944951,-6.111568
22.470238,8.283336,-3.084889,-4.726921
22.503850,7.006881,-3.908374,-1.948052
22.536716,9.053398,-1.046453,-1.013831
22.570462,9.433192,-0.178823,-0.931378
22.603716,8.179932,0.706764,0.235388
22.636429,9.172364,0.427231,0.791162
22.669822,9.080334,0.859549,2.200051
22.703861,7.076016,-1.199987,2.541685
22.736755,8.309224,-0.320834,2.208281
22.770897,7.066888,-0.019454,3.376693
22.803585,5.564174,-0.147847,3.252639
22.836705,5.759009,1.493586,4.475970
22.870148,5.094145,1.553443,5.522423
22.903878,3.096113,2.705245,7.252595
22.936695,1.761447,2.268288,8.018318
22.970994,1.729424,1.597588,9.315573
23.003579,3.233335,2.004467,9.152462
23.036705,2.768395,1.186669,9.895439
23.070711,3.603701,2.706891,10.355890
23.103583,1.375069,2.243597,11.836757
23.136702,2.711979,2.956496,15.188909
23.170578,4.482854,3.925583,20.555105
23.204078,4.613791,-0.226859,24.396739
23.236787,8.323889,1.034781,28.191983
23.271019,7.159517,-1.048548,22.993237
23.303482,4.625763,-1.187267,16.567868
23.336703,6.390502,-0.597225,13.036744
23.371300,0.325473,-5.706185,11.503353
23.403326,-1.831929,-11.942255,8.369380
23.436707,-7.820041,-16.958437,0.762431
23.470923,-4.604214,-9.975049,-4.790819
23.503384,-3.231240,-7.176128,-5.905659
23.536954,-5.630615,-6.064580,-8.962266
23.570704,-3.598015,-9.782608,-6.097651
23.603400,-4.644468,-7.866580,-4.664670
23.637197,-7.670697,-8.390181,-6.125484
23.670193,-7.972827,-6.049017,-5.140983
23.703117,-11.414614,-10.942042,-8.281241
23.736807,-15.055577,-4.942108,-10.976609
23.770322,-15.162871,-5.504765,-12.256506
23.803458,-12.579136,-6.130872,-12.339108
23.836906,-13.668836,-9.831691,-7.933470
23.870428,-12.290774,-11.422845,-4.423446
23.903871,-8.095384,-14.543199,-10.447771
23.936888,-3.821881,-15.698293,-4.905445
23.970570,-5.476932,-19.180634,-5.791930
24.003720,-0.557121,-18.648354,-9.144980
24.036845,1.782996,-16.613959,-8.460363
24.070074,-3.252041,-12.948455,-4.456068
24.103740,-4.363888,-7.155178,-4.363139
24.136711,-2.126875,-4.018512,-7.854758
24.170331,3.564046,-3.259074,-4.091089
24.203234,0.811963,-5.377270,-2.509512
24.236702,-4.342489,-6.728246,-1.465004
24.270447,-9.506966,-12.160884,0.294647
24.303395,-5.845353,-10.568234,0.841143
24.336844,-0.200522,-9.456536,0.864038
24.370631,2.681602,-16.776022,1.437171
24.403326,4.055025,-17.107481,0.687759
24.436755,4.290263,-10.573471,-0.978066
24.470279,4.440206,-4.546153,-0.262923
24.503325,3.838042,-7.868076,-1.361452
24.536696,4.192846,-10.869465,0.538415
24.570485,1.409337,-9.191070,1.276005
24.603331,1.021912,-7.661420,-2.352686
24.636728,1.395420,-7.274892,-1.215699
24.670186,-2.630424,-9.015838,-0.276540
24.703122,-4.917567,-11.335154,-0.706315
24.736704,-2.678609,-12.217449,-1.309825
24.770377,-2.941232,-9.798471,0.230899
24.803090,-4.927293,-11.399650,0.202617
24.836660,-1.464705,-12.322348,-2.536298
24.870100,-4.539718,-11.525500,-2.393389
24.903380,-3.636773,-13.196263,-2.176257
24.936702,-2.778570,-9.485717,-1.658343
24.970294,7.885585,-9.078389,-3.611184
25.003387,3.885479,-7.056413,-1.293813
25.036857,0.393860,-6.585786,-0.518812
25.070275,4.044699,-9.756421,-1.777010
25.103386,6.873549,-10.331050,-5.068257
25.136844,4.062956,-9.241649,-8.245925
25.170307,-4.912329,-8.081916,-7.263220
25.203162,-8.487149,-8.201631,-10.691689
25.236845,-8.017420,-5.774422,-9.977443
25.270238,-21.964442,-9.161141,-2.127025
25.303091,-27.128022,-14.689700,1.679293
25.336800,-20.839426,-13.287845,6.000233
25.369905,-27.164385,-2.959489,12.123323
25.403325,-19.248423,2.269036,12.444307
25.436707,-6.283208,5.288082,9.197504
25.470134,3.833254,3.448671,18.772708
25.503373,7.053570,-27.788546,15.370725
25.536703,15.938021,-16.270378,17.644998
25.570512,5.354374,-25.542555,1.419214
25.603371,13.497195,-11.348921,-2.741908
25.636721,6.511713,-6.678864,-2.765252
25.670260,-7.127494,-8.470539,-8.210908
25.703326,-19.539628,-6.566033,-15.456770
25.736692,-17.990823,-0.545299,-14.856851
25.770402,-15.819953,-6.033304,-15.349326
25.803146,-9.483023,-8.704281,-14.151434
25.836705,-10.719972,-17.068424,-7.460898
25.870298,-6.737973,-16.302701,-1.155393
25.903088,-2.249433,-11.003994,-2.926866
25.936653,7.885734,-6.849756,-4.646264
25.969842,10.512118,2.030655,-6.298322
26.003377,7.827823,-21.480796,0.475116
26.036846,3.402282,-9.159944,-3.463636
26.070002,0.104151,-7.194384,-5.512397
26.103359,-0.969387,-3.316387,-2.448757
26.136867,-8.121572,-4.956474,0.327568
26.170933,-22.561966,-4.058017,-1.911090
26.203381,-24.858088,-12.427398,-2.572063
26.236700,-25.200022,-26.797610,2.098593
26.270539,-25.763278,-17.974213,8.044655
26.303333,-26.844448,-21.615774,5.703641
26.336704,-25.394558,-10.757083,2.768993
26.370061,-21.057905,-7.277585,2.891251
26.403506,-11.372864,-8.587111,10.631234
26.436722,-1.610008,-11.891227,15.120672
26.470986,2.304501,-27.281256,17.302466
26.503593,14.574624,-23.585524,14.838595
26.536653,12.102074,-23.242692,4.879408
26.570440,11.739788,-10.992771,0.075719
26.603333,10.989329,-5.023364,4.564409
26.637241,-4.438859,-13.180850,-17.927824
26.669806,-10.881437,-6.091665,-20.225142
26.703802,-13.195066,-3.831159,-21.645703
26.737210,-12.429343,-4.283829,-19.637045
26.769912,-7.424385,-4.391572,-14.723968
26.803567,-7.297787,-6.555109,-4.895270
26.837013,-6.280066,-12.799410,-2.155158
26.869777,-3.285561,-10.510621,-2.039633
26.903554,2.702851,-5.377270,-1.323442
26.936962,4.187309,-4.412222,-3.927229
26.970056,3.382978,-13.454098,-0.341635
27.003559,0.657232,-16.731428,-1.731967
27.036914,3.315489,-12.272966,-4.570096
27.069867,5.212064,-5.613257,-3.623754
27.103481,-8.740046,-0.012869,3.687950
27.136820,-20.596556,-4.921906,-1.348133
27.169910,-12.193356,-14.934366,-5.778612
27.203628,-14.711248,-26.290470,-2.112509
27.237029,-24.611027,-20.711482,4.879856
27.269729,-20.610024,-22.522311,2.017785
27.303576,-16.161139,-13.991915,-0.813309
27.336676,-19.749278,-4.842595,-3.182606
27.370065,-13.920535,-0.417354,-2.176856
27.403568,-14.993774,3.046730,-0.301830
27.436764,-15.832822,1.166167,4.356106
27.471348,-15.799003,-8.273010,12.422011
27.503335,-8.544463,-16.923420,17.279121
27.537244,4.809524,-25.442593,16.845456
27.571143,5.435930,-22.364737,8.370278
27.603387,6.670933,-12.489350,17.247547
27.636708,4.092884,-17.818584,-3.646948
27.671255,2.509812,-11.412519,-13.017440
27.703424,6.775683,-1.986211,-13.575010
27.737353,-3.169438,-0.216384,-22.676593
27.770833,-6.722859,-3.217623,-22.739144
27.803335,-9.262001,-6.267047,-14.143353
27.836902,-13.396037,-11.637882,-13.542836
27.870304,2.773033,-9.306893,-10.161504
27.903390,6.549273,-5.690472,-0.055966
27.937229,-7.840841,-13.445269,-4.275000
27.969863,-7.227605,-15.486100,-6.696223
28.003361,-5.939329,-9.940033,-2.552909
28.036914,-7.292550,-3.094466,-8.764138
28.069839,-8.593097,-1.863354,-7.966093
28.103374,-9.073301,-0.427231,-9.396829
28.136902,-5.429944,-0.679978,-6.198360
28.170150,-9.049657,-5.236605,-3.307558
28.203388,-11.301035,-12.064514,-3.623155
28.236819,-13.220356,-13.064727,-4.084654
28.269976,-14.281025,-17.309948,-4.314655
28.303190,-14.997815,-19.576141,-6.980993
28.336685,-13.503630,-17.613274,-6.989223
28.369888,-12.644829,-14.788614,-7.090382
28.403318,-8.955532,-12.010193,-7.004337
28.436816,-8.786884,-9.290133,-7.343728
28.469764,-10.979902,-9.318865,-7.778291
28.503526,-11.100364,-11.423892,-6.599703
28.537026,-7.989886,-11.775104,-5.734767
28.570452,-6.683503,-11.647159,-6.754434
28.603335,-7.158320,-10.866323,-8.721341
28.636916,-4.514279,-9.067465,-7.826176
28.670150,-2.305399,-7.582258,-7.214885
28.703333,-2.194514,-7.466584,-7.622363
28.736914,-1.039719,-7.276089,-6.768949
28.770002,2.735772,-5.069753,-5.514941
28.803353,3.631535,-5.775918,-2.367950
28.836950,3.662361,-5.718755,2.962930
28.869782,4.439906,-4.395612,4.502457
28.903319,3.702316,-5.403158,7.513722
28.936935,-0.020501,-2.322459,12.520625
28.969783,-6.269142,3.685706,14.699576
29.003352,-12.515238,5.425604,15.028641
29.037331,-14.296887,7.756742,11.634889
29.069753,-15.935777,9.050555,6.970518
29.103491,-14.564000,13.945226,5.166273
29.137196,-13.556454,10.176618,3.976013
29.170624,-9.277863,11.382740,5.145323
29.203540,-7.389069,9.578046,5.046259
29.237222,-3.357090,12.739254,7.634933
29.269850,0.157873,13.173518,7.587047
29.303332,0.999166,6.828208,9.731430
29.337193,5.770382,-0.530185,9.369444
29.370027,5.718605,-8.171552,0.989140
29.403359,16.519833,-9.014940,7.378894
29.437195,10.395097,-5.407049,7.125099
29.470174,2.810295,-14.541703,4.921757
29.503355,-7.761980,-17.385368,10.525735
29.537204,-9.192267,-10.164497,9.336822
29.570030,-21.258726,-9.476888,6.732436
29.603318,-23.126719,-11.126552,9.283100
29.637188,-27.096746,-12.512694,-1.676001
29.670340,-27.405160,-8.771471,-1.705331
29.703361,-23.484365,-6.783913,-4.328273
29.737093,-24.701711,-9.546921,-8.624522
29.769952,-14.770058,-6.304308,-5.936785
29.803487,-1.599833,-3.814399,-5.493692
29.837193,11.233846,-5.484713,0.585403
29.869762,10.144595,-9.757768,0.882744
29.903487,7.795649,-6.690536,5.933792
29.937205,-3.618965,-11.984006,3.619713
29.970661,-24.351097,-19.052989,4.963507
30.003361,-33.692409,-8.447045,3.010517
30.037202,-9.367948,-17.324613,0.411967
30.069908,7.182562,-19.988407,-15.994137
30.104148,-3.201461,0.087242,-3.753793
30.136809,-5.006903,2.100987,7.255738
30.169835,-11.985652,-15.072786,10.733290
30.203894,-10.267751,-11.872522,-0.795652
30.236675,-9.983878,-12.905058,-4.856063
30.269758,-12.820360,-8.871582,-5.070951
30.303898,-15.680785,-6.803217,-3.013959
30.336457,-21.240470,-3.635126,-2.305100
30.369929,-20.542684,-2.891850,0.057313
30.403773,-14.575073,-0.276091,4.208259
30.436725,-10.883831,0.064197,3.475308
30.469900,-10.143098,2.630424,3.763370
30.503723,-16.292525,5.053891,9.549165
30.536722,-15.879511,4.639979,9.713473
30.569975,-13.014746,1.665825,14.884535
30.604234,-3.160160,-0.140365,18.155131
30.636662,6.300866,-0.687909,17.757979
30.669762,7.523449,-2.470156,17.075457
30.703580,9.751333,-16.792333,19.091746
30.736676,7.061501,-26.012284,22.728818
30.769736,-4.020906,-34.869799,2.024370
30.803608,7.261723,-22.342440,-3.806019
30.836695,6.468466,-13.479687,-3.413206
30.869933,-3.833553,-13.029860,-10.580953
30.903585,-3.121851,-16.234464,-16.557992
30.936930,-6.871903,-12.359161,-20.046768
30.970045,-14.185403,-14.904886,-24.965531
31.003479,-13.242503,-8.029841,-18.479557
31.036798,-13.255821,-15.910188,-12.076784
31.069717,-10.441636,-17.726105,-2.254221
31.103390,-7.948734,-18.838999,-0.913869
31.136712,-4.550642,-10.339579,-3.522146
31.169790,2.283551,-3.222411,-3.540851
31.203480,-1.208965,-1.175445,-4.117575
31.236663,-1.163025,-8.454527,-2.343708
31.269748,1.416670,-20.898984,-2.972956
31.303582,0.124353,-8.582322,-5.172408
31.336707,3.029073,2.316323,-7.507587
31.369956,1.407990,0.587947,-2.510260
31.403982,-18.934921,-9.264245,2.506370
31.436862,-28.238073,-11.168003,1.286031
31.470022,-25.097666,-20.223047,-0.483197
31.503487,-27.841370,-16.636106,3.452712
31.536817,-27.136701,-18.126549,5.834728
31.570144,-25.384232,-8.938472,4.323185
31.603476,-19.134544,-2.453396,3.837743
31.636697,-8.497475,-2.082431,3.259074
31.669834,-4.957671,-1.918572,4.353113
31.703905,-11.320489,-25.312703,16.144229
31.736695,0.812711,-28.610385,19.386393
31.770093,15.469789,-20.755926,16.819867
31.803585,13.270785,-12.920172,11.360593
31.836721,13.308196,-5.865405,5.914937
31.869838,3.486830,-9.229229,4.939414
31.904066,-9.983878,-17.375043,-13.998050
31.936651,-8.228117,-8.863352,-17.319675
31.970495,-10.554167,-10.097906,-23.196452
32.003478,-15.580824,-12.123922,-20.996103
32.036663,-15.005746,-13.640254,-12.366044
32.070622,-16.953648,-19.196496,-5.275961
32.103465,-10.199065,-18.447534,-5.891443
32.136657,-4.567552,-10.842829,-1.324939
32.170327,-1.745136,-4.574286,-2.393838
32.203510,-1.129804,-0.897409,-7.675935
32.236709,-0.254543,-8.409485,-4.053827
32.270053,4.892277,-22.072634,-4.102761
32.303146,4.280836,-11.828976,-3.961947
32.336707,-0.143807,-8.567807,-2.221300
32.370188,-17.888168,1.740347,1.306084
32.403702,-17.536058,-4.860403,-3.779532
32.436656,-17.914655,-18.517118,-1.645025
32.470326,-23.925363,-19.042215,3.738679
32.503650,-25.149143,-13.716871,8.865746
32.536627,-22.073532,-12.269076,6.340970
32.569789,-23.083322,-4.001303,2.552160
32.603464,-16.223690,-4.696245,0.781585
32.636403,-5.895782,-4.010281,2.514600
32.669767,-3.389113,-6.693828,4.498267
32.703505,-0.881696,-20.841222,8.788830
32.736735,7.490677,-13.184441,11.098718
32.769884,10.640960,-13.243999,9.462821
32.803580,4.601521,-10.954163,1.510646
32.836722,5.043566,-7.057161,-2.199452
32.869802,0.837851,-7.322329,-7.311854
32.904116,-5.230171,-5.686582,-13.931908
32.936656,-8.345737,-4.699387,-17.683157
32.969896,-8.255203,-2.711979,-19.670116
33.003497,-7.758987,-3.688998,-11.216038
33.036662,-10.157763,-9.008505,-7.059556
33.069900,-9.768991,-14.277284,-2.819872
33.104051,-5.244985,-15.169455,-3.310551
33.136664,-2.047415,-10.375793,-1.714908
33.170030,0.846680,-6.635767,-6.258068
33.203903,-0.198427,-11.794707,-1.829086
33.236702,-2.737418,-20.530264,-2.541835
33.270109,-1.939073,-7.730255,-2.758219
33.303583,1.800055,-8.462458,-6.209733
33.336663,-6.129824,-5.496834,-1.207170
33.369961,-10.581103,-3.562400,-2.226837
33.403879,-13.347852,-6.360424,-3.954764
33.436735,-16.285792,-19.861061,-3.823677
33.470066,-18.974726,-24.336582,-0.620869
33.503743,-27.319714,-22.196538,0.557270
33.536847,-19.645575,-17.942788,-2.037389
33.570948,-23.195854,-10.517206,-2.582688
33.603410,-19.294662,-6.021183,-1.916627
33.636651,-15.291414,-1.413378,-0.960708
33.669752,-11.925196,-2.501132,1.652806
33.703506,-6.551368,-10.849712,4.384688
33.736659,-5.567466,-15.127854,6.463677
33.769793,-3.853456,-12.087559,8.530995
33.803577,-1.531147,-14.722023,7.701374
33.836663,-1.899867,-13.588028,4.143613
33.870444,-2.092008,-15.360998,-1.386891
33.903390,2.334729,-6.826562,0.590192
33.936708,4.835712,-3.094466,-8.603422
33.970587,6.089720,5.666829,-14.658724
34.003266,12.215503,10.900441,-10.896102
34.036708,4.524305,6.906321,-9.037835
34.070303,-4.699237,-15.357407,-9.530460
34.103392,-3.479947,-14.533922,-5.442364
34.136842,-3.529329,-5.509853,-5.511799
34.170504,-0.958613,-6.064131,-1.876523
34.203389,2.269934,-8.476674,-1.507952
34.236710,7.150987,-15.310718,5.863011
34.270299,1.132797,-15.198486,-0.252298
34.303413,-1.540574,-21.592130,-0.824533
34.336698,1.116037,-13.908264,1.547907
34.370205,-0.277438,-14.834105,-2.669780
34.403561,-3.177219,-10.227198,-7.534672
34.436712,-0.857005,-6.418036,-10.409163
34.470069,-3.808862,-19.755263,-1.570203
34.503378,-11.462051,-40.507149,-2.588823
34.536657,-11.275895,-33.713359,-2.053251
34.570126,-14.568040,-15.111094,-10.940097
34.603399,-5.884559,-18.125801,-6.742163
34.636657,-0.076318,-16.074645,-1.300397
34.670130,-3.460643,-11.457861,-2.059237
34.703437,-4.869531,-8.138781,-2.046218
34.736663,-3.970027,-6.565584,-0.833810
34.770166,-2.285347,-6.028965,0.685514
34.803349,-2.846807,-6.917395,0.810167
34.836705,-2.625336,-9.377076,1.234854
34.870064,-1.697849,-12.171508,1.428641
34.903383,-1.130702,-13.396186,2.247637
34.936817,-0.307067,-12.565967,1.819658
34.970064,1.114092,-12.061970,0.761234
35.003382,1.372974,-11.408928,-0.310509
35.036938,0.529137,-11.192095,0.287015
35.070002,-1.993992,-9.241051,0.453418
35.103372,-3.824275,-6.922034,-0.337445
35.137253,-6.265550,-5.992601,-2.195711
35.169981,-6.680510,-14.301676,-8.705927
35.203372,0.351960,-12.548459,-7.889027
35.236827,-2.468061,-8.844646,-11.908436
35.269999,-7.728160,-5.490998,-11.452773
35.303209,-5.701396,-7.033218,-8.896423
35.337047,-4.999421,-5.860167,-5.618045
35.369997,-5.593953,-3.479049,-5.728781
35.403386,-5.666081,-2.676813,-7.085594
35.436785,-8.305483,-3.855551,-7.212640
35.469776,-8.247571,-4.645516,-7.905787
35.503375,-8.756207,-5.037281,-7.781733
35.537045,-8.921264,-5.754071,-7.394606
35.570165,-8.321046,-5.971502,-7.545297
35.603587,-8.902409,-5.813180,-7.827823
35.637111,-9.640896,-5.679698,-7.374105
35.669969,-11.838553,-7.904140,-6.702508
35.703373,-11.822990,-8.871881,-6.801422
35.736699,-10.346762,-10.206696,-5.911345
35.769935,-9.354330,-11.005341,-6.917545
35.803321,-7.904889,-10.239169,-6.361920
35.836716,-6.680660,-9.367050,-5.317412
35.870182,-5.681943,-8.626916,-5.654708
35.903324,-3.539954,-7.587496,-5.338662
35.936698,-1.638590,-6.871155,-5.300353
35.970191,0.161914,-5.981528,-4.199729
36.003314,2.482128,-5.100430,-4.272456
36.036732,4.979219,-4.429282,-3.490721
36.070071,6.300866,-4.219781,-2.088417
36.103368,7.084845,-3.681366,-1.836867
36.136834,7.186154,-3.339881,-0.628201
36.170126,4.308071,-3.306660,1.788832
36.203363,14.658424,-4.057419,21.223859
36.236526,-1.016375,-3.037901,8.622876
36.270057,21.303918,-0.670999,4.728119
36.303359,10.032362,1.381504,5.087561
36.336712,4.508143,-1.773718,5.637050
36.369888,6.658662,-0.150391,4.970540
36.403488,7.701973,2.098144,3.345118
36.436739,6.717921,2.943626,2.066419
36.470274,5.191563,3.339282,0.605755
36.503334,5.123326,4.496621,0.823934
36.536725,5.875132,7.056563,0.947090
36.570376,4.589998,7.120011,0.300184
36.603335,3.746760,6.762065,0.404934
36.636690,3.160160,7.115821,1.483261
36.670291,3.781178,6.223650,3.590683
36.703383,4.868484,6.776581,5.254413
36.736835,4.763434,5.762600,5.965666
36.770371,4.630252,5.137242,7.006881
36.803385,4.502906,5.499977,8.020114
36.836911,3.970476,4.733955,8.831029
36.870079,4.497219,3.616571,9.637305
36.903342,5.406899,2.785454,11.004144
36.936773,5.637499,2.816729,11.515623
36.969962,4.278741,3.091474,11.836907
37.003597,2.811941,3.328358,11.052628
37.037296,3.619264,3.316986,10.383126
37.069896,4.146157,3.004082,9.152312
37.103764,3.232288,3.379237,8.820853
37.137349,2.932702,3.114818,10.328356
37.170016,4.961562,2.863867,12.725187
37.203492,6.531166,1.654153,13.841075
37.237663,5.441466,1.601928,15.791820
37.269748,6.186539,0.280281,15.573790
37.303487,5.084718,-1.512890,13.766852
37.337475,3.710397,-3.258774,10.775639
37.369807,4.021654,-5.216852,11.454270
37.403496,-0.600218,-13.766253,7.835754
37.437128,-10.549229,-19.823052,-0.238830
37.469928,-8.768777,-12.595447,-9.822264
37.503485,-7.987192,-13.090017,-14.284167
37.537131,-9.931204,-8.242932,-13.578152
37.569993,-13.050960,-7.988240,-14.353602
37.603490,-9.015988,-5.131107,-10.894605
37.636693,-8.633051,-11.279337,-8.337806
37.669873,-8.701887,-9.657806,-5.815723
37.703850,-9.856083,-5.528559,-3.944887
37.736656,-10.524688,-1.212108,-9.259157
37.769839,-13.054102,-10.553569,-8.310122
37.803858,-13.273030,-10.199963,-11.478961
37.836813,-10.673433,-24.627338,-11.144359
37.869785,-6.195817,-22.132641,-6.850804
37.903573,-4.034823,-20.178454,-1.237398
37.936727,-4.334558,-12.704686,-6.244600
37.970409,2.494398,-4.668411,-3.885030
38.003525,0.506392,0.207255,-8.424898
38.036694,-2.592414,4.407134,-4.827033
38.070130,-7.070480,-4.706720,-3.389562
38.103637,-2.600944,-1.387340,-3.764568
38.136810,-3.771152,-8.797210,-2.028410
38.170204,-15.827734,-14.646902,1.722540
38.203629,-25.372411,-20.122337,-5.738807
38.237096,-22.388231,-21.578064,-7.312153
38.270750,-21.854455,-20.923675,-2.630124
38.303317,-21.765567,-16.243443,0.949335
38.336651,-23.064617,-11.067443,7.297039
38.370223,-16.214561,-11.828227,14.390564
38.403387,-4.168753,-11.354159,19.160133
38.436954,5.008998,-19.317258,20.440778
38.469911,9.643141,-24.873501,17.403475
38.503368,22.738994,-15.965406,20.886714
38.537296,4.169501,-20.893298,-3.292743
38.569931,8.828934,-10.962842,-4.677539
38.603491,2.028859,-11.539267,-10.044932
38.640557,-11.385883,-14.361084,-21.348961
38.670031,-16.100085,-8.975584,-19.529602
38.703746,-15.425195,-16.561284,-24.308449
38.736780,-9.019878,-10.002583,-17.142198
38.769884,-10.011562,-10.256677,-3.395249
38.803494,-8.961966,-12.033388,-2.614412
38.836907,0.981358,-8.261637,-1.340651
38.870031,4.903051,-3.707404,-2.362114
38.903489,2.721856,-0.332507,-2.149471
38.936913,-0.627303,-6.213624,0.612938
38.970151,-2.902026,-11.125205,-1.551648
39.003490,-0.725170,-0.507589,-5.469150
39.036906,0.893368,-1.666274,-4.577129
39.069894,-1.506007,-11.316748,-5.611760
39.103359,-3.923788,-20.104231,-3.228247
39.142530,-7.187949,-23.187025,-3.639915
39.169779,-4.012676,-21.060150,-4.658235
39.203317,-6.847512,-19.584670,-5.556991
39.236905,-7.607698,-10.695131,-3.668497
39.269856,-5.287933,-6.100045,-3.894458
39.303490,-4.429282,-3.928726,-3.259523
39.336906,-6.389155,-3.470220,-1.285433
39.370015,-0.849373,-2.856833,-0.670999
39.403530,-0.367972,-5.254413,0.608448
39.436903,4.607806,-10.079650,1.565565
39.469851,5.388942,-16.132258,2.636858
39.503486,8.454826,-14.828419,0.398798
39.536802,6.297424,-13.148228,-1.865898
39.569831,3.731945,-10.340777,-4.614540
39.603489,-2.820321,-9.745048,-7.778291
39.636908,-6.954207,-7.080206,-11.418655
39.669936,-10.213730,-7.525544,-12.174651
39.703485,-11.158276,-7.236583,-10.680765
39.736909,-13.416089,-7.863737,-7.055216
39.770348,-15.166612,-11.862645,-5.558787
39.803386,-14.590487,-18.370767,-1.410684
39.837271,-15.931886,-15.636192,2.347748
39.869761,-13.118000,-13.765056,4.708515
39.903358,-13.712232,-13.517247,5.915386
39.937202,-10.981847,-6.405466,2.492154
39.969785,-11.157977,-2.609623,0.349716
40.003490,-10.914657,1.509299,-0.411817
40.036837,-9.091557,0.931827,6.766255
40.069700,-7.950979,-9.342209,13.917842
40.103320,0.141562,-19.508203,16.523275
40.136795,11.618129,-16.450249,11.513678
40.169777,13.584886,-6.470860,11.566951
40.203387,9.620844,-8.424000,1.049596
40.237227,-6.204795,-14.940352,-13.384813
40.269992,-9.101583,-10.788508,-12.568661
40.303323,-1.658493,-5.911495,-13.281410
40.336802,-8.789428,-8.702486,-14.034563
40.369803,-5.888151,-6.226344,-5.774422
40.403370,-8.782545,-5.993649,-6.091067
40.437265,-9.845608,-1.496429,-9.040080
40.470062,-10.147588,-3.865427,-7.354652
40.503373,-12.786541,-11.725273,-12.098183
40.536902,-9.376777,-16.063422,-14.490525
40.570465,-8.646070,-27.050955,-4.210204
40.603452,-4.247765,-22.635890,0.148296
40.636794,-3.670442,-16.542429,-6.960941
40.669774,0.231498,-5.514043,-4.142865
40.703909,3.346765,0.186006,-5.704688
40.736910,3.005429,0.323229,-3.061096
40.770061,2.419128,-21.835600,-3.892812
40.804846,-1.711915,-11.808175,-2.017935
40.836709,-6.500490,-8.735257,-4.818353
40.869939,-5.513295,-7.532128,-5.305441
40.904637,-16.835131,-3.280024,0.828274
40.936709,-24.058246,-5.320705,-0.428128
40.970302,-23.737561,-26.396717,2.029458
41.004211,-22.467991,-17.422330,7.371112
41.036712,-26.564017,-18.551386,5.217601
41.070094,-20.843616,-11.555877,1.900316
41.103713,-16.009551,-7.892618,0.820941
41.136708,-9.731430,-7.677581,4.550492
41.170076,-4.906194,-12.004507,12.382355
41.204087,14.359588,-19.012735,14.494416
41.236707,15.905100,-13.346205,10.320126
41.270429,6.320619,-17.926028,1.072192
41.303592,6.113214,-9.605581,-0.480354
41.336434,4.097224,-7.358842,-3.302620
41.370115,-0.156527,-6.465174,-10.460341
41.403696,-8.899416,-9.501579,-17.692585
41.436828,-18.244019,-13.306251,-15.797956
41.470467,-12.879918,-5.963271,-16.052349
41.503332,-11.062056,-8.528900,-11.428830
41.536812,-8.641581,-5.153105,-4.703278
41.570546,-6.332890,-6.978300,-2.656911
41.603333,-3.980053,-7.690750,-2.389349
41.636768,1.676450,-3.851211,-3.669694
41.670394,6.875495,-0.316495,-4.519666
41.703334,5.615202,-21.428571,2.937940
41.736741,-0.709308,-11.271556,0.106845
41.770500,-0.166553,-9.779316,-3.589336
41.803379,-2.898734,-5.477680,-5.209969
41.836588,-10.343470,-3.084440,-2.941980
41.870233,-9.833936,-3.039248,-2.855187
41.903412,-17.089673,-18.458158,-3.434755
41.937207,-20.632021,-23.186875,-1.079075
41.970403,-22.958221,-22.779547,1.978579
42.003358,-20.809049,-15.601923,0.149643
42.037660,-20.775679,-8.790326,-2.067317
42.070056,-19.738653,-7.259628,-2.171020
42.103314,-14.297037,-2.830945,2.420175
42.136784,-9.490805,-5.127665,8.900762
42.169753,-3.660416,-10.342872,12.366343
42.203362,3.143998,-21.751799,14.867625
42.237183,6.041684,-18.622017,10.587987
42.269801,13.900932,-10.311895,11.671402
42.303491,9.796525,-16.364653,0.170892
42.336745,2.813437,-11.135830,-6.137605
42.369926,1.360703,-7.994674,-8.238293
42.403909,-7.744022,-9.465964,-19.214154
42.436555,-12.571803,-8.133543,-18.535973
42.469822,-14.977463,-7.042646,-13.963932
42.503582,-11.385434,-12.861811,-13.525777
42.537027,-6.694876,-14.078259,-6.529071
42.570349,-6.799027,-15.463952,-2.490059
42.603520,-0.963551,-7.667555,-4.472528
42.636690,0.200522,-3.773696,-4.715399
42.670235,-1.153747,-3.806468,-3.376394
42.703624,-2.422270,-17.004078,0.292253
42.736823,-1.228718,-9.176854,-2.362862
42.770001,-0.289110,-10.607740,-6.841376
42.803631,-9.294174,0.195583,-2.984180
42.836772,-7.554575,1.664030,-3.976761
42.869837,-4.121167,-3.789259,-3.362926
42.903870,-11.978619,-23.011344,-1.168262
42.936470,-11.037963,-27.884616,-6.624843
42.970359,-16.429449,-24.222255,-7.791609
43.003775,-13.772538,-21.279377,-11.446039
43.036706,-16.978339,-15.277647,-8.946703
43.069876,-18.678882,-7.742975,-7.432616
43.103862,-18.760437,-3.620910,-2.022424
43.136707,-16.699554,-5.687031,2.884368
43.170002,-11.548545,-8.853176,8.664925
43.203582,-8.798706,-16.431544,10.318629
43.236710,-5.935737,-15.351571,8.526356
43.270216,-2.870301,-12.901766,7.935117
43.303578,-2.784556,-13.551815,4.507096
43.336706,-1.812176,-13.719864,3.674333
43.370081,-0.063000,-15.353366,1.243982
43.403577,8.743338,-4.731111,-11.726021
43.436466,11.965151,1.730172,-9.560089
43.469881,12.989157,4.004445,-5.427101
43.504126,-0.487836,-14.200068,-4.030483
43.536434,-2.456389,-17.563443,-1.144020
43.569846,7.241521,-11.801142,1.616293
43.603859,3.563747,-16.229227,-7.164006
43.636712,4.815510,-12.984967,-3.145495
43.669918,-0.267113,-16.020175,-3.550578
43.703580,-7.659025,-21.298681,-3.220765
43.736709,-6.736776,-15.242331,-6.141347
43.769907,0.115075,-7.859846,-4.158428
43.803398,-11.878807,-2.314527,-6.833146
43.836601,-14.202313,2.184937,-7.135125
43.869709,-8.329126,-7.656930,-5.267731
43.903365,-6.935202,-20.050060,-5.634805
43.936780,-4.880305,-26.804494,-3.225105
43.970025,-5.616998,-22.810673,-6.588929
44.003549,-5.819165,-18.391866,-5.214159
44.036658,-2.503975,-17.130376,-2.522830
44.069816,-3.056308,-16.775124,-3.025481
44.103866,-2.304052,-15.101068,-2.944075
44.136708,-2.371990,-12.995442,-3.422484
44.170476,-3.372802,-11.984904,-1.912437
44.203861,-7.562356,-9.633265,-0.736692
44.236735,-7.795949,-10.194575,-0.961755
44.270314,-5.926310,-11.434816,-2.650626
44.303892,-4.344883,-9.876584,-3.854503
44.336705,-5.318909,-9.303452,-4.247016
44.370542,-8.970496,-10.722067,-3.670293
44.403908,-9.722602,-9.152462,-4.741886
44.436710,-8.358905,-8.140726,-4.970091
44.470285,-5.931397,-6.390502,-5.317113
44.504313,-3.073965,-3.437747,-4.870279
44.536708,-1.198041,-1.666723,-1.925157
44.570485,0.351362,-0.828423,-0.417205
44.604271,0.519411,-0.020501,0.650199
44.636427,0.330711,-0.304074,1.957030
44.669907,1.136389,-0.004938,2.650775
44.704368,1.131750,1.220937,2.533305
44.736709,-0.555774,0.451622,2.392043
44.770321,-2.411646,-0.227008,2.817178
44.804499,-3.712193,-1.680490,3.055260
44.836710,-3.628991,-4.172494,2.224143
44.870102,-3.614625,-8.056477,2.142887
44.904452,-8.502413,-21.820037,3.827418
44.936709,-14.453713,-34.330337,8.780150
44.970196,-25.657929,-21.151282,9.046365
45.004291,16.648676,-27.084625,10.007671
45.036671,11.390522,-14.345970,-15.687519
45.069852,-14.791307,-10.072317,-12.220741
45.103481,-28.485433,-12.744790,-6.590575
45.136805,-6.907219,-12.765591,-1.753366
45.170572,4.936571,-12.929450,-2.788147
45.203737,-0.811065,-7.838148,-2.189426
45.236694,-4.091687,-7.085294,-0.293450
45.269923,-3.999208,-7.234937,0.030677
45.303626,-5.003910,-10.473959,-1.069648
45.336692,-6.009062,-10.022486,-2.854140
45.369780,-8.202379,-10.633329,-3.492816
45.403696,-10.446574,-8.196393,-4.608703
45.436658,-9.605730,-5.086214,-3.817392
45.469912,-9.532555,-4.048141,-2.486467
45.504271,-10.045980,-4.361044,-0.500556
45.536710,-11.017163,-4.742634,0.761982
45.569922,-12.073941,-3.913013,2.416883
45.604039,-11.384087,-2.627132,3.200264
45.636706,-10.727454,-1.955534,4.512483
45.669822,-11.919210,-1.381953,4.278292
45.704177,-10.722665,-0.783231,4.504851
45.736401,-9.881672,0.373359,4.986402
45.769861,-8.876820,1.135790,4.266470
45.803608,-8.210759,2.442173,3.985441
45.836722,-8.192353,3.681665,4.758047
45.869824,-6.183546,4.117426,4.229059
45.903988,-5.643784,6.191627,4.842595
45.936709,-5.623732,7.082900,5.069903
45.969783,-3.880242,8.767880,5.020371
46.003917,-2.446662,9.580291,4.488989
46.036703,-2.100089,8.931140,3.472914
46.069848,-0.998268,7.177774,3.689148
46.103895,0.070931,6.743959,3.856448
46.136707,0.324875,6.319721,4.424643
46.169837,2.708687,6.386312,7.643313
46.203879,3.200713,6.044976,8.876520
46.236708,3.443135,5.938431,10.408714
46.269820,4.416113,2.984479,10.657870
46.303884,5.766192,4.078070,12.060324
46.336703,3.652934,1.369383,10.247998
46.369762,0.898905,-3.631834,8.097329
46.403656,1.358309,-11.752658,9.916389
46.436649,-7.874661,-29.468737,3.763670
46.469774,-8.635146,-16.389644,-4.183718
46.503952,-6.164840,-12.375771,-6.359227
46.536710,-5.958034,-12.898773,-8.608959
46.569902,-11.529091,-9.264096,-11.899906
46.604065,-5.867650,-10.190236,-4.777950
46.636708,-8.358157,-17.159108,-9.450551
46.669877,-10.876648,-13.352191,-6.585786
46.703852,-4.978471,-8.011883,-7.734296
46.736796,-5.341056,-10.182155,-12.494139
46.769901,-14.291350,-12.714114,-13.438834
46.803852,-14.075865,-12.348237,-14.120757
46.836388,-11.997025,-15.228265,-7.213239
46.869870,-12.026504,-23.696410,-3.596219
46.903732,-5.120183,-22.770269,-3.335242
46.936656,0.372461,-15.910786,-2.197357
46.969750,0.721129,-11.471928,-1.443755
47.003752,0.828274,-2.281756,-1.195049
47.036840,-2.082431,-2.409551,-4.809973
47.069875,-3.669844,-1.744986,-2.158749
47.103857,-3.293192,-4.760890,-0.207704
47.136708,-14.671144,-0.089935,3.161058
47.170496,-30.439470,-8.069945,-2.846059
47.204335,-21.312597,-18.388874,-0.069285
47.236715,-21.353300,-21.408219,3.312496
47.270215,-25.318090,-20.290386,7.850269
47.304216,-24.280316,-16.373482,8.614944
47.336659,-18.213043,-13.451704,8.998779
47.370011,-6.077898,-8.059171,10.430113
47.403856,4.432424,-6.997304,11.668558
47.436782,3.711444,-18.913671,8.672707
47.470043,17.633177,-19.842954,16.965171
47.504233,5.138440,-23.678901,3.005728
47.536882,3.861087,-17.874102,-3.816194
47.570002,11.997324,-8.039118,0.448330
47.603981,2.497541,-17.043134,-11.093930
47.637115,-0.474967,-8.884002,-11.875066
47.669942,1.203129,-8.367585,-7.496663
47.703853,-1.986959,-12.282543,-9.508313
47.737080,-6.007416,-14.153679,-12.169114
47.770064,-7.857003,-16.882119,-9.768392
47.803778,-9.254369,-21.754194,-14.452067
47.837013,1.628265,-17.832950,-7.269205
47.870298,-0.929881,-22.608505,-0.670700
47.903808,0.325473,-21.796842,-0.158023
47.936978,-3.505386,-18.090785,-1.932190
47.969793,0.206807,-10.698722,-0.000599
48.003574,-4.118772,-5.041022,-1.288725
48.037129,-18.819546,1.719697,0.748215
48.069752,-23.359713,3.894907,-1.562272
48.104055,-18.870275,-4.619478,-3.779682
48.136667,-19.728178,-10.827266,6.748747
48.169871,-20.830298,-19.047602,12.229570
48.203643,-15.768925,-14.250797,11.913374
48.237216,-16.356722,-10.623901,8.830430
48.270630,-9.152013,-6.420281,5.699451
48.303462,-5.017378,-7.919404,5.051796
48.336690,-1.705930,-6.736626,6.588629
48.370720,4.619627,-14.423335,7.377098
48.403464,9.316321,-18.393213,3.349907
48.437193,3.484885,-21.895307,2.815233
48.469931,5.792978,-16.110859,2.080336
48.503464,4.806232,-13.717470,-3.055559
48.536695,6.849756,-11.810270,-1.700692
48.570104,-0.898756,-17.501790,-10.521396
48.604049,-2.538244,-11.304327,-13.837483
48.636718,-3.560754,-16.690127,-10.504935
48.670901,-3.674632,-21.197672,-13.648185
48.703464,-3.995467,-29.040608,-12.824401
48.736641,1.530099,-28.474808,-3.287805
48.769827,0.625956,-24.525282,-8.236797
48.803431,4.995680,-23.530007,-12.153402
48.836642,-15.519021,-2.799820,3.549830
48.870080,-7.279232,-3.059001,0.996173
48.903361,-9.816877,-2.102633,-1.852280
48.936725,-18.668257,-4.690409,-1.051092
48.970804,-19.800755,-5.096240,-0.197678
49.003120,-14.866578,-8.245177,4.354460
49.036657,-20.723603,-18.559616,10.085186
49.070044,-14.821535,-11.652696,11.837056
49.103377,-16.633562,-9.832888,9.499933
49.136820,-11.133435,-3.451814,4.572191
49.170237,-7.526591,-7.806274,4.717045
49.203493,-2.093654,-12.888148,5.184230
49.236722,6.082537,-19.760800,-2.419427
49.270372,6.873998,-18.050232,-1.218243
49.303351,5.556991,-20.868308,1.518726
49.336693,7.212790,-16.284445,-2.476441
49.370572,9.092605,-10.152376,-1.951194
49.403380,7.958760,-6.845267,-2.452648
49.436900,-0.806575,-11.399800,-8.608360
49.469847,-5.549808,-13.000381,-11.259435
49.503159,-5.482768,-14.215332,-11.663171
49.536971,-7.266961,-24.035500,-14.977014
49.570031,-5.292871,-26.613699,-7.958311
49.603882,-6.091067,-28.815096,-4.160224
49.636755,-4.526250,-22.108099,-6.735579
49.669796,-2.096348,-17.794492,-4.036170
49.703309,-10.005127,-5.458975,1.592500
49.736970,-16.457731,-1.565864,-0.100410
49.770303,-16.735618,0.792659,-2.491705
49.803420,-16.078237,-6.038093,-2.271580
49.836900,-15.731364,-7.693892,2.710034
49.869936,-15.806336,-13.486122,7.550684
49.903101,-16.947213,-19.744040,10.169585
49.936901,-12.133649,-13.919188,9.898432
49.970321,-9.704495,-6.914252,8.352321
50.003288,-7.400742,-2.846807,6.250736
50.037194,-4.169651,-4.904847,4.275748
50.069785,2.145132,-11.126851,-2.322907
50.103358,4.480609,-11.718838,-5.781904
50.137193,2.272179,-16.445461,-3.216276
50.170282,0.719633,-15.958971,-3.893709
50.203318,3.006327,-13.790795,-0.630745
50.236905,6.472207,-11.544205,2.535849
50.269788,0.325174,-12.017675,-4.085851
50.303495,-5.387894,-13.394690,-8.736604
50.337194,-6.676470,-14.477506,-10.626744
50.370367,-8.007693,-16.511453,-13.498093
50.403401,-7.063297,-21.911618,-13.294878
50.437454,-9.541534,-26.816615,-8.773865
50.469768,-8.126510,-30.379314,-10.086683
50.503366,-9.526420,-26.482013,-6.324659
50.537194,-7.085444,-9.834534,-1.712514
50.569818,-7.422141,-2.994655,-2.954700
50.603361,-12.157442,-2.882722,-0.175232
50.637194,-15.483406,-0.818846,-1.117234
50.669768,-13.786156,-3.013959,0.566847
50.703365,-13.656565,-6.094808,3.527384
50.736901,-12.953991,-12.838467,7.508933
50.769769,-11.972783,-15.380901,7.552928
50.803525,-10.474557,-12.060623,6.702807
50.837187,-11.197183,-5.590062,7.145151
50.869826,-5.992302,-6.503482,6.987577
50.903361,2.264996,-9.968465,1.661186
50.937192,6.523834,-11.807128,-4.343835
50.970117,4.953780,-17.610730,-8.092840
51.003365,2.098144,-15.164667,-7.096817
51.037190,-0.043247,-14.693441,-2.095450
51.069824,2.005664,-11.167703,-4.013274
51.103502,4.572340,-7.885285,-2.515199
51.137195,4.173991,-9.795777,-5.048654
51.169774,-0.971781,-14.058656,-8.365340
51.203975,-2.808499,-15.675697,-8.861855
51.236407,-5.287185,-25.601963,-11.887336
51.270060,-7.639422,-33.736703,-18.345028
51.303618,-7.201268,-30.979681,-9.279958
51.336851,-10.747207,-22.742735,-3.686903
51.369869,-3.114519,-12.935136,-3.195625
51.403900,-5.772477,-7.186752,-0.011672
51.436991,-9.531807,0.429924,-0.160417
51.469943,-13.522036,1.013232,-1.360853
51.503725,-13.260310,-0.643315,-1.171106
51.536670,-14.046834,-4.121316,-0.695690
51.569867,-11.484797,-8.664925,2.227735
51.604164,-12.880517,-15.767279,4.817755
51.636725,-11.808475,-16.194958,4.127601
51.670374,-9.891399,-13.241755,5.131706
51.703413,-8.561672,-8.755908,6.485076
51.736732,-4.706271,-7.956216,5.738358
51.770562,-3.258475,-5.004060,0.697785
51.803328,5.732522,-10.084139,-7.046986
51.836797,5.458675,-12.281496,-5.179442
51.870390,5.214159,-18.912025,-5.195902
51.903325,2.679058,-15.296053,-6.483281
51.936876,3.339282,-12.529155,-4.493628
51.970352,2.722454,-8.442256,-2.892149
52.003371,0.341635,-10.314589,-7.292400
52.037115,-8.235899,-14.599914,-8.090147
52.070146,-7.671296,-13.652674,-10.856297
52.103543,-13.767600,-20.529666,-11.246565
52.136729,-11.345180,-24.705452,-9.963976
52.170143,-8.868739,-29.702030,-8.869188
52.203494,-4.912628,-23.580287,-6.297723
52.236847,0.166702,-9.623837,-5.804500
52.269813,1.401107,-2.990465,-1.772072
52.303487,-17.462733,1.534588,1.988605
52.336516,-19.826793,3.149535,-1.363995
52.369845,-14.056561,-3.083543,-2.339219
52.403554,-13.055449,-6.003525,1.941168
52.436818,-12.218197,-11.091984,3.802278
52.469939,-12.277904,-14.461345,6.576808
52.503554,-9.920280,-14.335495,6.110071
52.536870,-10.663107,-8.377162,4.862648
52.570002,-12.437574,-6.972463,6.548226
52.603553,-1.414275,-10.382677,2.418679
52.636728,2.033049,-11.515623,-6.476247
52.670328,3.564196,-12.187819,-8.467845
52.703461,-0.390718,-12.335218,-7.849670
52.736697,0.932724,-10.169884,-7.632389
52.770253,1.355167,-7.362882,-3.081896
52.803573,-2.274274,-8.845395,-2.532857
52.836620,6.159753,-6.976055,-5.524069
52.869849,0.316046,-8.654151,-9.336972
52.903470,-4.400101,-12.125119,-9.611118
52.936715,-6.211679,-15.605215,-11.431823
52.971062,-9.089313,-22.201028,-9.364207
53.003679,-11.513678,-27.013096,-7.580612
53.036641,-13.447214,-31.739718,-7.386825
53.069876,-8.876221,-15.479964,-5.326990
53.103451,-10.532768,-2.172965,-0.536919
53.136471,-18.086894,-0.412266,-0.053423
53.170315,-13.601646,-0.460002,-0.457758
53.203556,-12.392830,-2.428106,0.140515
53.236696,-14.648847,-5.678052,2.110265
53.270167,-13.193121,-10.282266,6.391550
53.303471,-9.869102,-16.562631,9.453244
53.336653,-10.146690,-14.765718,7.746866
53.370178,-10.088927,-8.738250,8.391827
53.403094,-6.888065,-4.686069,7.413461
53.436651,-2.359420,-6.898989,2.351639
53.469838,1.593997,-7.390267,-8.073387
53.503578,3.448372,-10.224803,-8.487449
53.536766,-1.396169,-13.905272,-4.661827
53.569932,0.231647,-14.797592,-4.522210
53.603853,-0.209799,-14.776193,-3.533369
53.636724,6.003525,-7.454463,-2.675915
53.670018,4.534331,-7.087539,-5.496535
53.703553,-6.526527,-15.897767,-10.883532
53.736722,-5.962074,-11.039609,-11.531037
53.770088,-10.704559,-14.324870,-12.170611
53.804019,-11.578324,-24.803019,-12.199043
53.836743,-10.119006,-25.362833,-10.906427
53.869736,-10.740024,-31.369352,-8.238443
53.903566,-8.274507,-10.430263,-6.289343
53.936729,-8.684528,-2.492154,-2.140942
53.969966,-13.833892,1.726131,-0.154731
54.003557,-11.356703,-0.333554,-0.837402
54.036724,-11.033623,-1.271516,-0.795502
54.069929,-11.156929,-4.255396,1.719996
54.103552,-11.636684,-12.414529,4.970839
54.136724,-11.687563,-15.744383,5.717408
54.170023,-12.877524,-13.083732,5.593354
54.203559,-10.527980,-5.323398,7.974772
54.236724,-6.580249,-3.645901,5.562079
54.269840,-1.933387,-4.199131,0.889927
54.303557,1.683483,-5.213261,-4.824189
54.336722,2.428106,-7.875708,-6.978449
54.369824,0.990636,-12.950250,-6.340821
54.403553,-0.747167,-13.779422,-4.068792
54.436721,0.554876,-11.788123,-6.870407
54.469800,2.269186,-9.676212,-4.634143
54.503555,4.673050,-5.879322,-3.737033
54.536701,2.130467,-9.979688,-7.331457
54.569778,-9.254967,-20.979791,-8.962266
54.603548,-3.673884,-18.064597,-8.376114
54.636913,-10.563296,-23.387098,-12.457177
54.669760,-11.444693,-28.947680,-9.573258
54.703605,-10.326860,-23.189120,-6.708344
54.736670,-7.966093,-18.683820,-6.359077
54.769910,-6.871155,-8.298300,-1.519175
54.803553,-12.402108,-1.759801,0.150242
54.836724,-15.049591,2.767497,-0.481850
54.869811,-14.596323,0.140814,-1.258497
54.903557,-11.594485,-0.698683,0.330412
54.936669,-11.497666,-4.717943,1.293963
54.970107,-7.696586,-12.260696,3.015455
55.003561,-5.655905,-14.681170,6.670634
55.036671,-9.076443,-11.626509,4.442899
55.070558,-13.088520,-11.126103,7.077214
55.103466,-5.627772,-11.002198,3.063341
55.136819,-2.610072,-8.717600,-4.556927
55.170463,-4.534181,-5.327289,-8.086854
55.203669,0.011523,-7.339238,-7.083050
55.236829,1.898670,-13.737671,-10.247399
55.270175,-0.185408,-12.754966,-7.533625
55.303756,1.015028,-8.376563,-3.192483
55.336710,1.760549,-6.169928,-3.980652
55.370547,-0.406580,-4.772862,-5.511350
55.403535,-0.141862,-12.786092,-8.455126
55.436824,-4.606010,-12.715311,-11.831520
55.470593,-8.538627,-14.930326,-8.885499
55.503492,-8.438815,-21.042642,-8.847340
55.536948,-8.471886,-23.142431,-7.960406
55.570114,-7.062249,-25.841392,-3.529329
55.603609,-6.405766,-16.329188,-7.520905
55.636786,-3.627944,-4.434519,-5.450894
55.669753,-14.348065,-1.009342,-1.919171
55.704109,-16.296267,2.349394,-0.589294
55.736719,-17.811401,-3.196373,-1.848240
55.770079,-13.969319,-7.299433,0.779939
55.803360,-15.396763,-12.277904,4.917118
55.836721,-15.000658,-16.600640,7.354203
55.870556,-9.431097,-10.627343,5.898775
55.903325,-13.075352,-5.597544,5.616100
55.936695,-11.994331,-3.848817,7.104598
55.970264,-1.453931,-8.183075,2.838427
56.003325,4.046345,-10.208193,-5.244237
56.036720,6.033454,-12.337013,-7.178073
56.070844,0.121809,-13.137154,-6.115159
56.103105,1.027598,-13.717919,-7.483793
56.136694,2.810444,-11.062205,-3.711744
56.170244,4.398904,-6.437640,-1.623925
56.203443,3.983196,-5.001965,-6.762065
56.236830,-3.755739,-14.427525,-9.272775
56.270353,-4.193893,-9.697611,-13.316427
56.303376,-8.168260,-13.537748,-11.913973
56.336826,-13.019385,-19.142326,-9.784703
56.370290,-13.145983,-26.645872,-8.119626
56.403317,-11.580119,-28.766462,-5.414531
56.436647,-9.473895,-17.424425,-3.839838
56.470001,-10.100899,-3.217473,-3.724912
56.503377,-14.385476,2.121638,-2.584034
56.536698,-17.031013,0.771409,-0.924195
56.570145,-12.975690,-0.635833,-2.790093
56.603059,-13.928017,-3.173478,-1.095536
56.636690,-12.370234,-8.991745,2.081084
56.670087,-11.749515,-16.502624,5.286736
56.703358,-10.883831,-15.357556,4.456367
56.736421,-10.305910,-10.771898,6.067423
56.769989,-7.952625,-7.833359,5.417973
56.803364,-1.307730,-3.583200,0.549788
56.836729,3.080101,-2.602590,-1.504211
56.870154,0.110436,-14.156522,-2.622642
56.903380,-0.020501,-17.872456,-4.241180
56.936830,0.831117,-15.226020,-5.211016
56.970368,-0.324875,-9.916090,-2.309140
57.003359,-1.340801,-7.159517,-3.872011
57.036986,0.584655,-6.194769,-5.258752
57.069987,-1.342896,-5.766192,-5.249325
57.103096,-2.397729,-10.930070,-7.695089
57.136705,-8.644274,-13.427611,-7.680873
57.170049,-8.806487,-16.215609,-4.183269
57.203368,-8.763989,-22.869932,-5.692717
57.236743,-7.886183,-22.901057,-6.285752
57.270307,-6.376136,-18.174136,-2.950061
57.303357,-8.038520,-13.981589,-3.663409
57.336827,-3.731646,-9.183139,-3.126789
57.369792,1.810979,-2.833190,-3.161806
57.403360,1.333468,0.600966,-2.480631
57.436826,2.213967,2.121787,-3.127687
57.470007,7.838298,1.974090,-1.148210
57.503491,7.037109,-8.106308,3.590982
57.536696,1.383000,-30.518183,-0.621168
57.570733,2.094253,-24.119450,1.657894
57.604205,-12.067207,-30.798763,-4.225318
57.636663,-11.787674,-25.551384,-4.702081
57.670030,-8.468594,-8.351723,-4.344284
57.703368,-15.542814,-0.451922,-3.414553
57.736723,-19.544416,-0.452969,-1.512741
57.770131,-13.742909,-1.895976,-0.349117
57.803343,-14.328163,-4.651352,2.404463
57.836699,-16.558591,-10.200411,8.309972
57.870344,-12.662936,-17.052861,10.064835
57.903391,-6.616313,-13.986079,7.861791
57.937028,-8.884451,-8.627814,7.305718
57.970369,-7.076765,-5.109109,8.114239
58.003363,0.356001,-10.751546,2.728440
58.037016,8.624971,-14.863286,0.772756
58.070307,5.709776,-14.569836,-5.547414
58.103360,5.022766,-15.547753,-6.472955
58.137847,5.737909,-16.238355,-1.627666
58.169971,5.786094,-12.444457,-2.453396
58.203377,5.589912,-11.016115,-1.050643
58.237882,1.693958,-12.829189,-6.285153
58.269791,-5.538585,-15.230509,-8.274956
58.303366,-14.998413,-16.340112,-10.516008
58.337751,-12.872586,-16.939731,-12.950250
58.370318,-12.054637,-23.132405,-12.203233
58.403623,-14.051772,-25.115623,-7.583905
58.437812,-7.305569,-24.278521,-10.401681
58.470043,5.066910,-16.135700,-5.810486
58.503489,4.151993,-10.637070,-7.577470
58.537607,-5.898027,1.811877,-6.591473
58.569762,-10.876349,-4.179079,-3.803026
58.603489,-8.614346,-1.560626,-1.777609
58.637616,-13.633071,-2.765701,-1.474432
58.670107,-14.812257,-6.224847,-0.929432
58.703489,-12.756762,-12.180188,0.597973
58.737470,-12.577190,-19.342249,7.088287
58.769934,-12.395524,-18.167103,5.370386
58.803471,-8.193700,-14.107439,5.265786
58.837437,-9.397278,-4.746076,6.283807
58.869782,-6.613171,-2.513852,5.188121
58.903494,-0.153683,-9.673668,1.021313
58.937270,5.987514,-12.119283,-3.837294
58.971484,5.332526,-13.428659,-4.042155
59.003320,5.228973,-11.763731,-7.515667
59.036899,6.645643,-10.759777,-0.374856
59.070205,6.692930,-9.440375,-1.757407
59.103359,5.980031,-8.504059,-5.677603
59.137223,5.675508,-4.277843,-4.681430
59.170312,-1.319552,-18.978916,-10.245304
59.203358,-12.890692,-17.085932,-13.590872
59.237159,-11.773009,-23.662590,-11.796802
59.270041,-10.699620,-27.097943,-10.310848
59.303168,-7.736391,-26.245577,-10.015453
59.336905,-6.073708,-20.490459,-7.475264
59.370270,-5.986316,-7.236583,-4.364337
59.403362,-8.410831,2.707789,-2.264547
59.437190,-16.561434,1.255804,-1.533541
59.470048,-12.550105,0.500556,-2.582837
59.503260,-13.114409,-2.269784,-1.683782
59.537198,-13.402771,-8.523213,1.651908
59.569972,-11.603763,-13.851101,3.477403
59.603360,-11.544504,-15.378357,5.282845
59.636927,-8.976781,-11.487490,6.395291
59.670057,-7.985546,-6.847362,6.904974
59.703361,-6.553912,-6.843022,5.854032
59.737197,-2.541685,-10.244556,0.389371
59.769991,1.910192,-13.783911,-8.814568
59.803495,6.114710,-13.656415,-7.209348
59.837306,1.627068,-14.132280,-7.027532
59.869771,2.384411,-11.825534,-5.160287
59.903497,4.545255,-10.588585,-3.787014
59.937193,1.043311,-7.952325,-7.865832
59.969954,-1.355017,-9.615308,-9.076593
60.003177,-3.620162,-16.646132,-5.977188
60.036838,-6.328849,-10.866023,-4.931034
60.069706,-12.734315,-18.692050,-7.573878
60.103348,-13.011454,-21.718279,-10.713238
60.136621,-12.398666,-18.440800,-6.059043
60.169773,-9.416133,-14.934815,-3.745713
60.203266,-5.939777,-11.226513,-3.792401
