time_tick,acc_X_value,acc_Y_value,acc_Z_value
0.017269,0.120313,-4.594637,-8.706077
0.046080,0.130788,-4.662126,-8.770423
0.078683,0.149344,-4.679485,-8.690664
0.112353,0.074223,-4.740240,-8.368034
0.145555,0.154880,-4.579074,-8.540422
0.178710,0.039356,-4.441403,-8.570949
0.211311,0.019454,-4.843344,-8.336010
0.245529,0.317243,-5.109409,-8.262086
0.277973,0.229702,-4.877462,-8.509895
0.311991,0.369917,-4.648808,-8.857815
0.345448,0.181667,-4.764931,-8.750820
0.378232,0.085596,-4.708066,-8.595491
0.412786,0.085895,-4.835712,-8.409185
0.445523,0.208902,-4.695197,-8.577683
0.478001,0.166553,-4.937469,-8.594593
0.511992,0.259481,-5.211914,-8.239490
0.545415,0.293899,-4.974431,-8.452283
0.578067,-0.145453,-5.040573,-8.557332
0.612364,0.250951,-4.326028,-9.196607
0.645617,1.025802,-4.386783,-7.670697
0.678063,1.482363,-5.980480,-6.111418
0.715906,-0.009727,-7.065392,-5.523022
0.745390,-0.711103,-5.512846,-5.684487
0.778861,-2.193466,-5.654708,-5.454336
0.812369,-0.394908,-6.904974,-6.736776
0.845446,0.921052,-3.597716,-5.147867
0.878483,1.521270,-4.645516,-3.418892
0.911577,2.926866,-3.248599,-1.340651
0.945517,4.606758,-2.054747,-1.105861
0.978281,7.782331,-0.405383,-3.996065
1.012254,13.441977,-0.637778,-4.116977
1.045365,18.683371,-0.643165,-8.737502
1.078327,22.924402,1.646970,-17.792696
1.112093,29.566453,7.240624,-53.283364
1.145446,22.038665,3.112873,-47.024398
1.178750,11.647309,3.455705,-33.616540
1.212009,2.130616,7.890822,-26.416619
1.245374,-7.008378,16.345050,-22.677191
1.278846,-7.816001,25.131785,-12.169563
1.312455,-6.363267,31.413796,-7.313350
1.345749,-4.192247,29.091187,4.001003
1.378761,-0.204412,25.304622,10.164497
1.412052,7.817497,17.268946,13.183693
1.445580,19.139183,-0.749113,23.227279
1.479092,19.562074,-8.269718,19.275807
1.512652,34.762655,-13.302360,8.443753
1.544886,58.869835,-9.642243,-24.386114
1.579017,60.360428,-9.277114,-46.050073
1.612274,39.752050,-6.318973,-46.979505
1.645963,17.388959,-3.364722,-36.174985
1.678062,-0.217282,10.071719,-30.813727
1.712165,-10.145493,33.710366,-31.617909
1.745461,-11.710010,46.496458,-19.984965
1.779173,-1.029543,33.296753,2.429753
1.812125,2.863119,25.072077,16.054892
1.844990,14.675633,10.969427,18.020752
1.878291,29.550741,-7.978363,16.618897
1.911739,32.016258,-16.031099,10.300074
1.945890,45.226139,-14.155475,-1.579930
1.979263,57.014711,-8.112892,-33.785936
2.012232,51.089299,5.897279,-44.852780
2.045299,27.187131,14.637026,-45.960586
2.079356,0.391765,13.727196,-34.540435
2.112024,-7.252894,22.935026,-26.337608
2.145554,-7.968936,30.522073,-18.941056
2.178466,-4.185962,33.731914,-13.015644
2.211987,7.656182,31.511812,1.847492
2.245381,9.782159,30.788587,13.268990
2.278247,16.286091,11.826731,22.189655
2.312030,30.626823,-11.945248,23.423461
2.345326,28.107884,-20.734377,17.399135
2.378718,39.780482,-16.535546,-0.116721
2.412122,53.527731,-21.357341,-23.150213
2.445359,55.366095,-6.127729,-44.732168
2.478271,31.855991,8.412029,-42.865372
2.512063,6.245348,14.407773,-27.713126
2.545317,-6.029114,21.907578,-21.281023
2.579504,-9.788893,26.427992,-12.253064
2.612049,-5.052694,29.979618,-8.597137
2.645382,-0.427380,29.858556,-0.884839
2.678394,3.688549,28.447423,7.358842
2.711998,9.821964,11.693100,19.597689
2.745298,16.027657,-1.665526,22.779098
2.778382,25.086443,-8.942214,22.795709
2.811973,49.884075,-2.613963,-1.890140
2.845422,71.886975,-13.299517,-33.694504
2.878545,57.075915,-4.939414,-48.370586
2.911687,28.652285,2.820919,-38.147130
2.946998,2.420026,10.789256,-29.077420
2.978649,-0.606952,18.623813,-21.949328
3.011916,-1.684830,29.774158,-15.596386
3.045497,-2.717516,36.317745,-10.730596
3.078741,0.862841,32.235485,1.201184
3.112244,5.498929,21.178817,15.122767
3.145942,7.439649,10.650238,22.591895
3.178421,9.314226,2.209478,23.609467
3.212217,19.130055,-8.554189,23.931050
3.245081,46.809661,-12.963568,4.693401
3.279093,69.294860,-22.506449,-33.462856
3.312207,53.148685,-9.370192,-37.587465
3.345970,28.292842,-1.590705,-36.897461
3.378887,2.940484,7.035313,-24.413648
3.412409,-2.373187,15.731664,-21.675930
3.445401,-3.673435,30.676056,-16.589866
3.479230,-3.818738,36.776251,-10.785216
3.512458,2.670977,35.969077,-2.487215
3.545824,4.438559,30.005356,12.484711
3.578784,7.163109,16.955893,20.913799
3.612494,18.973828,-2.484671,22.022803
3.645642,40.411826,-11.744727,16.468057
3.678955,67.817735,-24.252782,-10.733140
3.712482,69.412330,-28.049074,-39.031968
3.746038,47.216091,-9.781112,-40.476172
3.778993,11.666014,10.987384,-32.493170
3.812660,-1.132348,22.120669,-32.965892
3.845784,-5.183033,39.129985,-24.405867
3.879206,-3.051220,41.406353,-12.779957
3.912206,4.075077,33.000310,3.595022
3.945830,9.491553,18.887933,23.022867
3.979188,10.856895,8.450188,27.239057
4.012338,9.962330,0.741930,24.029515
4.045842,21.503841,-13.335730,19.385944
4.078004,43.783431,-22.036420,-0.898007
4.112990,57.138615,-29.967048,-31.475000
4.145826,45.941582,-15.984411,-46.086287
4.179103,24.609232,-4.435417,-42.453704
4.212523,2.256616,11.829125,-31.569424
4.245782,-2.162640,24.882629,-27.078490
4.279289,-4.528944,39.782577,-11.171145
4.312709,2.367351,36.849576,-2.386206
4.345817,8.240239,25.573531,7.189146
4.378502,12.543820,14.946487,18.598523
4.411440,11.339045,6.776581,19.605022
4.445938,15.308324,-11.114431,22.372967
4.478884,20.765353,-16.149467,22.482656
4.512631,51.596439,-23.680398,5.856726
4.545513,63.145433,-26.188114,-27.801265
4.577965,50.680624,-13.287396,-40.613096
4.612743,17.238867,1.400359,-32.975320
4.645359,5.031594,12.579136,-30.841112
4.678017,1.739450,23.816872,-23.777965
4.712218,-0.575227,36.233047,-17.348107
4.745556,4.409529,29.838654,-7.760633
4.778210,7.396851,26.853576,5.957585
4.812188,5.884110,19.184226,16.584778
4.845369,12.021566,7.809716,23.429746
4.878040,16.114600,-6.909763,22.602969
4.912232,27.028509,-14.020646,16.277561
4.945279,46.913064,-24.443876,8.993391
4.978144,68.613236,-39.644756,-4.581768
5.012234,56.068369,-26.605020,-27.721057
5.052699,15.132793,2.740860,-38.049712
5.078055,5.451044,13.966176,-36.480556
5.112060,1.470541,25.693095,-26.496977
5.145256,2.773931,35.112071,-17.959398
5.178752,6.122791,31.392696,-4.871327
5.212230,7.250650,31.118849,8.211507
5.245123,11.254646,19.642283,21.662912
5.278808,21.136617,1.180084,32.346969
5.311547,18.871322,-9.010900,28.370208
5.345402,36.455715,-14.017953,14.532126
5.378260,62.039422,-32.535519,-0.853114
5.412237,64.861837,-33.226421,-26.005400
5.445433,40.986156,-15.197738,-35.467922
5.478525,6.941038,7.374554,-34.358470
5.512273,0.593933,16.392786,-26.855522
5.545279,0.039356,25.968139,-19.428742
5.579026,1.947004,30.170562,-13.791693
5.611783,4.298793,30.439470,-1.599384
5.645433,5.004060,29.758445,7.226557
5.678049,9.619498,19.011837,21.353899
5.712208,20.259859,-6.024625,32.690699
5.745246,22.829079,-9.480928,26.846693
5.779217,45.508964,-17.801824,4.319593
5.812181,65.813417,-36.292455,-13.601047
5.845383,62.634253,-25.998816,-30.991054
5.879086,21.203208,-0.973278,-37.321998
5.912354,2.839774,11.502305,-36.594135
5.945027,-0.381440,18.937614,-27.786600
5.979651,0.928534,28.700919,-16.944669
6.012056,4.668411,32.098262,-7.396103
6.046206,4.815061,31.568227,4.948692
6.078510,8.941615,21.750004,16.148719
6.114352,13.020134,3.205352,30.157094
6.145551,12.167917,-4.014322,30.812830
6.178372,31.075453,-9.315872,18.911277
6.212201,58.423001,-27.213767,-7.618472
6.245708,65.915623,-29.120667,-23.312875
6.278154,48.151958,-19.401657,-30.572503
6.312253,14.979259,-2.388750,-27.966172
6.345632,3.834900,9.439327,-30.194804
6.379404,-0.866433,23.971902,-21.689847
6.412234,0.692099,32.972028,-16.545123
6.444723,1.934734,32.651343,-6.602696
6.478048,3.951023,30.814775,7.959359
6.512042,9.068662,17.737478,20.247439
6.545812,13.282009,-2.857282,26.101471
6.578958,17.181255,-8.891634,24.455698
6.612119,41.930253,-15.362195,11.669606
6.645839,64.237228,-33.527353,-8.570800
6.678913,62.380009,-30.054738,-22.920661
6.712628,28.027076,-9.976695,-27.861422
6.745956,9.096795,4.810871,-32.406078
6.779227,1.107657,16.839022,-30.110256
6.811956,-2.123433,27.497789,-20.147477
6.845721,0.823186,28.042340,-11.759242
6.878020,1.699645,28.980152,-0.996472
6.911986,4.869531,28.343721,10.326112
6.945582,9.709134,14.096665,24.560149
6.978152,11.732456,-3.576466,27.012946
7.011984,17.265055,-5.750629,25.692497
7.046118,44.598087,-11.701929,7.971330
7.078018,76.193849,-32.020448,-12.532896
7.112124,63.838429,-24.209535,-24.201454
7.151043,22.477867,-5.219995,-31.023377
7.178208,7.821238,8.678842,-35.920293
7.211976,1.782397,19.140380,-31.332689
7.245309,1.924558,30.876727,-23.809390
7.278710,5.698852,31.318922,-11.022550
7.311936,4.990892,35.605295,5.822308
7.345408,7.016458,25.729459,18.588946
7.378069,10.752893,8.552543,33.330572
7.411918,9.812986,-1.800354,29.001102
7.445391,27.945820,-5.248577,17.972716
7.478201,65.784985,-29.306973,-4.253601
7.511985,68.832763,-31.515403,-14.436953
7.545001,50.943098,-22.785084,-22.378953
7.578699,15.409183,-0.111634,-29.059014
7.611945,5.897877,9.388299,-30.378566
7.645644,0.549938,22.997427,-23.261398
7.678116,-0.563256,32.413111,-15.112441
7.711991,-0.024093,33.678342,-6.947772
7.745404,3.186497,33.379505,3.813052
7.778751,10.174374,21.064789,17.391653
7.811938,18.297292,-4.690409,31.204595
7.845416,17.847465,-10.119604,28.469571
7.878580,36.889381,-10.857494,15.877416
7.911934,65.654047,-28.934811,-7.810763
7.945386,64.434457,-24.038194,-23.654958
7.978493,27.878930,-6.214821,-36.583810
8.012076,10.876349,3.255183,-33.349128
8.045447,3.961198,12.026055,-28.856697
8.078623,-1.899268,28.561900,-19.506257
8.112128,-3.834601,34.623487,-9.411943
8.145126,-0.206507,30.744143,-0.818248
8.178931,4.308819,26.098478,7.714842
8.212005,9.841867,13.289940,15.143717
8.245657,16.205882,-2.803561,24.502686
8.279117,23.801609,-9.650025,23.629220
8.311937,45.876487,-18.297741,5.314270
8.345376,58.525805,-26.332220,-12.702741
8.378440,57.036260,-20.240256,-23.591809
8.411915,24.663552,-6.265101,-28.463585
8.445784,4.913825,3.968381,-29.916618
8.478593,-1.552995,14.980157,-26.287627
8.511424,-4.021953,25.604806,-21.753745
8.545958,-4.031830,32.557666,-12.215653
8.578802,1.114391,32.997317,0.883342
8.612685,7.265913,25.068486,13.586083
8.645646,15.128453,1.569006,24.418586
8.678075,16.565175,-9.396380,25.344727
8.712304,27.073402,-12.337612,18.084051
8.745860,59.965819,-23.691172,-6.914103
8.778952,69.122322,-21.447276,-30.607370
8.813127,32.849320,-8.022209,-28.426773
8.846206,6.699664,2.829299,-29.715348
8.879249,-1.496429,9.907111,-26.695105
8.912948,-5.072746,19.028747,-19.362002
8.945719,-2.914745,23.753573,-14.271747
8.978126,-0.988242,27.014592,-6.220358
9.012755,3.300375,28.065834,8.002306
9.045500,9.393986,14.559062,19.484260
9.078367,9.711079,0.639125,24.497299
9.112528,9.517291,-3.744216,21.763172
9.145515,32.476261,-6.798279,10.153424
9.178166,60.873105,-23.710027,-18.473422
9.212783,60.039145,-25.414011,-23.876729
9.244999,26.212805,-14.703018,-21.146344
9.278208,8.100622,-3.005279,-23.294618
9.312852,-0.854910,9.725145,-21.006428
9.345261,-3.552075,14.352704,-17.516006
9.379535,-0.535572,19.946058,-15.163619
9.420242,1.262238,34.823709,-7.294196
9.445330,0.545149,36.564805,0.353457
9.478014,5.012291,25.415059,10.496256
9.511387,10.758131,3.227948,28.477801
9.545255,21.008224,-5.181387,28.035606
9.579059,55.076535,-16.975496,4.060112
9.611933,72.467291,-28.049972,-15.391076
9.645367,58.135237,-25.143307,-18.905591
9.678312,21.714089,-10.372501,-22.783887
9.712185,7.363480,3.307109,-26.252760
9.745489,-0.779041,17.588134,-26.120326
9.778344,-3.050322,25.953773,-23.590163
9.811986,-2.826755,29.868283,-16.154405
9.845358,2.805805,34.502875,-3.108832
9.878735,9.266041,31.086078,6.763263
9.912229,17.708896,4.739192,36.595632
9.945611,13.608081,-2.313630,38.305153
9.979082,25.408774,-1.074287,19.373524
10.012146,72.872973,-21.099805,-7.860744
10.045522,75.940503,-27.137299,-16.423014
10.078256,33.495329,-10.964638,-23.795623
10.111916,9.025864,2.567424,-31.990370
10.145297,-0.012271,12.132900,-26.617290
10.178945,-4.905595,22.902404,-21.024086
10.212265,-3.943541,29.043900,-16.354927
10.245261,-0.585104,35.564891,-1.658044
10.279001,2.413591,29.865440,7.386226
10.311847,7.787120,13.635316,22.587406
10.345101,11.747420,-4.389028,24.826363
10.378796,20.929811,-7.598719,17.492213
10.412034,61.441000,-23.905610,-1.258198
10.445320,70.234019,-31.469762,-12.639891
10.478876,52.952803,-21.411960,-20.466815
10.513093,16.375128,-2.220851,-21.862984
10.545335,3.539355,6.686945,-25.967092
10.578758,-3.093120,18.843638,-23.106218
10.611962,-2.097246,28.021989,-18.673943
10.645305,-2.347000,30.954990,-9.498287
10.678980,-2.056094,26.786387,1.245478
10.711968,-2.354183,17.961344,13.692928
10.745549,7.542453,1.493886,24.349451
10.779101,12.650964,-6.147482,20.276320
10.812607,28.525986,-9.006261,14.948433
10.845479,54.864641,-23.461620,-1.135940
10.879239,55.904211,-23.485114,-14.134824
10.912361,35.911763,-17.078301,-20.800370
10.946168,16.005959,-7.627451,-19.373075
10.978742,3.896253,2.133759,-24.234226
11.012152,-4.419405,15.511240,-20.683498
11.045862,-5.466158,24.634970,-15.551045
11.079202,-1.683633,24.643949,-10.846270
11.112058,-1.128457,27.905267,-0.868378
11.145513,2.122536,23.763450,6.107677
11.178967,11.549742,3.070973,26.699444
11.212384,16.730381,-8.571398,25.257784
11.245388,34.907210,-10.944137,12.117338
11.279275,56.191824,-25.396054,-1.494334
11.312509,61.831568,-26.847291,-17.746905
11.345422,34.093901,-14.903989,-23.186875
11.379640,13.871752,-4.429431,-21.968931
11.412273,0.096969,9.762257,-25.452021
11.445818,-5.693166,20.305201,-23.275314
11.479140,-5.411987,27.357724,-17.488622
11.511317,-2.990465,27.852443,-6.484927
11.545850,-0.312305,28.181807,3.799883
11.577957,4.917118,19.814672,13.104981
11.612278,12.190064,1.416370,25.848574
11.645739,16.648676,-5.128713,28.580157
11.678684,38.132914,-9.903221,10.396294
11.712152,64.551777,-22.949841,-5.263840
11.745624,63.810596,-24.536804,-20.018934
11.778743,29.023698,-11.746672,-19.854327
11.812614,8.881907,-2.532258,-23.872240
11.845405,1.910940,8.981719,-25.990885
11.879081,-0.416456,18.349966,-20.780317
11.912417,1.165270,25.554975,-17.518700
11.946260,1.658343,31.254725,-5.594850
11.978967,0.155479,33.360800,4.232501
12.012574,2.493500,18.336050,26.948600
12.044989,11.994630,1.325088,32.325869
12.078921,21.133325,-6.296526,21.789659
12.112545,57.430269,-17.529773,2.544379
12.145930,65.931635,-29.240681,-10.830109
12.177970,46.687402,-25.140763,-16.921774
12.212943,21.476456,-10.965835,-16.587322
12.245348,7.568791,0.991085,-26.280893
12.278760,-3.921693,17.917798,-26.901612
12.312295,-5.069155,27.356077,-21.042941
12.345376,-1.440164,28.038000,-9.541085
12.379561,4.052930,25.810565,3.288553
12.411994,5.360210,21.761975,13.318522
12.445413,4.992837,11.143761,21.030072
12.477994,7.137220,2.244046,25.411617
12.512419,36.685118,-3.893560,23.982527
12.545224,66.844756,-14.422288,1.931292
12.578776,74.995358,-19.577936,-16.230723
12.612185,40.700787,-19.349881,-20.840773
12.644717,16.894389,-11.136278,-19.873032
12.678010,4.256444,4.945699,-22.960765
12.712074,-0.410620,16.612761,-21.018399
12.745015,-0.153085,26.437719,-18.570390
12.778025,1.149707,32.473417,-10.080547
12.812040,0.404186,36.073827,1.674505
12.845195,0.632541,23.415829,14.207999
12.878037,7.226707,9.085272,19.775016
12.912830,16.929406,-3.247851,21.308707
12.945298,43.949535,-9.796525,15.309820
12.978756,61.043997,-19.526160,5.380861
13.012180,65.088546,-22.400502,-15.789725
13.045669,42.976407,-13.737223,-20.227387
13.077994,18.279634,-0.796998,-16.971755
13.112631,4.618281,10.034308,-27.634862
13.145470,-2.044721,22.642923,-25.363731
13.178997,-2.339368,32.322278,-18.436011
13.212253,-1.177989,29.604313,-7.192888
13.245583,2.094253,25.185656,6.629183
13.278755,5.836374,10.324316,21.754194
13.312260,9.559341,-2.643143,22.266272
13.345331,16.557693,-7.087389,17.205048
13.378936,35.115812,-9.911451,10.894007
13.412110,49.380826,-16.237307,1.851233
13.445249,58.500665,-19.046704,-22.164814
13.478263,34.808147,-14.273992,-22.860504
13.511967,5.633159,-4.974730,-25.758789
13.544960,0.004040,4.061160,-23.325445
13.578668,-2.911453,11.122960,-21.761975
13.612131,0.691350,16.642091,-17.179310
13.645315,3.961348,25.218578,-12.600385
13.678624,5.328785,29.954777,-0.788469
13.712058,7.581510,22.340495,12.976737
13.745262,7.940055,8.061565,27.632618
13.779356,13.671380,-1.947154,26.021262
13.812446,41.123378,-11.971436,12.038326
13.845337,68.402539,-31.321765,-2.636260
13.878823,57.274341,-28.929872,-10.231836
13.912286,30.492594,-14.738035,-13.275574
13.945361,8.286029,0.255740,-24.986032
13.978803,1.730321,8.627066,-24.443277
14.012210,-3.638868,19.332821,-18.179074
14.045636,-3.643806,24.087576,-12.646924
14.078674,-3.602804,25.563954,-7.238080
14.112076,-1.198490,24.710091,-0.121660
14.145378,2.714373,18.491379,8.479368
14.178988,11.922652,1.780601,25.023294
14.212418,25.546146,-3.046132,21.572677
14.245808,34.904966,-3.385971,7.821238
14.278865,57.402885,-14.363029,-1.519774
14.311264,60.222158,-20.145532,-2.092158
14.346024,36.978119,-12.369785,-11.554530
14.378946,16.192265,-4.380348,-14.772003
14.411333,6.415642,1.125016,-22.373865
14.445613,2.956945,7.630144,-15.166013
14.478197,2.830047,8.352022,-13.578751
14.512575,3.299477,10.090125,-12.990654
14.545619,2.837978,14.367219,-9.542132
14.578989,1.580230,14.960105,-6.666444
14.611339,2.107571,13.337825,-3.507182
14.645522,2.897686,14.840091,-0.840694
14.679433,3.223010,15.071140,6.236220
14.711925,9.741457,11.463099,14.322177
14.746081,20.514252,5.268180,26.091744
14.778238,37.768383,3.557611,12.461067
14.812276,45.308592,-2.101735,1.510197
14.846477,43.328517,-10.733889,-4.455469
14.878699,37.311074,-8.910340,-7.517313
14.911964,32.012816,-9.550811,-11.422096
14.944683,26.078576,-2.349694,-21.349110
14.979247,21.421089,5.843557,-24.474703
15.011980,16.415682,12.698700,-24.371449
15.046105,8.028793,20.547922,-25.714195
15.078689,3.676428,26.123768,-19.032039
15.112016,2.505023,25.036612,-7.274293
15.145566,1.889392,24.128878,-0.661422
15.179003,3.296484,23.518035,8.124714
15.211978,12.084416,12.808389,22.105855
15.244946,16.821064,1.806639,28.341177
15.277976,25.050978,-3.396895,26.011087
15.311986,43.778942,-6.612273,8.700839
15.345407,53.583249,-14.909076,-0.149793
15.378107,54.899508,-11.010279,-5.981229
15.412190,40.771119,-6.502585,-19.602179
15.444664,15.525456,0.383535,-19.591853
15.478196,7.764673,6.119050,-20.249085
15.511331,3.916306,12.493091,-20.771788
15.545725,0.414511,18.402641,-17.635870
15.578810,0.314998,23.378269,-16.606476
15.612301,3.146243,27.483873,-9.119540
15.645026,7.019451,29.152691,3.192483
15.678329,9.995700,23.787093,8.108553
15.712097,11.594336,7.545147,23.105769
15.745616,8.927249,-2.171319,26.518975
15.778867,15.848984,-3.365769,23.028553
15.812128,44.320051,-17.673131,3.949526
15.845510,59.900126,-26.274907,-6.948221
15.878592,52.611467,-21.494114,-20.123834
15.911844,28.115066,-11.248511,-18.258834
15.945739,6.409507,2.205587,-22.898513
15.978730,2.978044,9.960683,-27.809346
16.012079,1.133845,13.874295,-25.388273
16.045546,2.778271,19.358111,-20.530713
16.079048,5.429794,23.158892,-12.132601
16.112177,3.002137,29.698289,3.605946
16.145402,5.241843,26.577485,6.084931
16.178802,10.423529,14.061798,30.053092
16.212055,22.196838,-0.607101,29.985005
16.245851,45.588275,-7.904889,9.616804
16.278983,67.406067,-20.740662,-16.171015
16.311505,63.793536,-27.940732,-23.964270
16.345691,34.246686,-16.350587,-21.662762
16.378691,8.935929,1.540424,-25.185357
16.413121,1.088652,11.781240,-30.092299
16.445439,-1.744537,25.228604,-33.015125
16.478578,0.167002,31.008114,-24.785361
16.511504,4.833467,31.788202,-6.836139
16.545611,5.662489,27.792586,6.026271
16.578727,9.447558,12.650366,22.635142
16.614528,17.589930,-5.087711,29.107499
16.644724,29.801692,-5.174952,14.231643
16.678807,45.605633,-15.885347,-6.156161
16.712077,60.942689,-29.588451,-10.314140
16.745455,48.107215,-32.980408,-12.646026
16.778199,23.312575,-21.936459,-12.074390
16.812000,6.037943,-0.066142,-20.494799
16.844610,1.691115,11.086747,-27.072055
16.878861,0.284172,26.094138,-28.099803
16.912233,2.077942,33.801199,-20.973806
16.945564,7.530632,30.848295,-3.720722
16.979094,9.562783,20.913799,14.643011
17.012524,10.314888,6.187437,26.094288
17.045477,14.024986,-2.688934,25.182364
17.079143,30.889746,-8.023705,14.848022
17.111416,57.777441,-20.826108,-1.854675
17.144975,69.501816,-34.675413,-23.754621
17.178296,39.630241,-24.321019,-20.099292
17.212164,9.297616,-2.947667,-20.570668
17.245423,1.244730,8.856019,-24.962239
17.279068,-4.147953,30.735165,-22.499715
17.312257,-6.164242,33.994538,-21.743569
17.345408,0.188251,31.911209,-19.030542
17.378980,7.270403,26.344042,1.842853
17.411280,12.557138,11.737544,19.505210
17.445539,16.582982,-3.369211,26.055231
17.479235,20.924274,-10.253235,23.981629
17.511278,35.228494,-13.250135,15.406190
17.545252,56.492457,-19.515835,-7.533475
17.578754,49.489317,-10.532469,-26.357510
17.611536,30.906805,-7.145750,-32.774200
17.644609,5.316664,-2.894992,-20.781215
17.678949,-0.181667,2.878382,-19.776064
17.712049,-2.044272,11.233247,-13.439583
17.745343,0.456860,18.391567,-12.770379
17.778583,0.118068,28.151280,-8.972741
17.811943,-0.711103,31.747948,-5.203534
17.845306,5.015283,24.703357,7.390117
17.878030,11.388277,0.691350,26.783095
17.911939,22.202973,-11.398603,30.930449
17.945244,43.773854,-22.492083,18.786176
17.978232,56.526426,-31.477992,-11.127300
18.012017,54.919560,-22.080116,-27.650275
18.045321,25.407876,-10.229442,-27.191470
18.078020,5.964918,0.848476,-25.055168
18.111749,-2.195112,8.678543,-22.362941
18.145308,-6.288595,19.328482,-12.402856
18.178936,-7.192888,25.347271,-9.289834
18.215500,-5.427999,24.831601,-4.589998
18.245264,-1.491791,22.040012,1.159434
18.278860,3.250694,14.573727,12.076036
18.311985,12.440267,3.002436,19.262639
18.345433,18.175483,-6.281562,20.864716
18.378928,43.370716,-13.589824,11.759242
18.411969,54.328919,-18.297292,-8.737801
18.445349,57.692593,-20.497343,-24.786558
18.478734,30.934489,-15.689315,-26.129903
18.511991,12.084865,-7.018105,-19.004205
18.545368,0.249156,3.771302,-16.782008
18.579192,-4.017165,13.570670,-11.727817
18.611837,-6.722859,23.048456,-6.021483
18.645434,-6.054254,26.868840,-10.714734
18.679016,-2.003120,23.978636,-5.363353
18.711927,3.718478,13.364462,6.633971
18.745345,6.801721,5.241095,12.956086
18.779103,9.633265,-2.194963,16.431693
18.811926,28.358835,-11.720036,14.687755
18.845174,51.982069,-22.185914,0.571187
18.879126,55.546115,-19.839363,-30.689075
18.911949,37.373476,-15.170952,-30.704638
18.945369,13.026568,-8.106308,-17.525883
18.978938,1.297404,0.652144,-17.159557
19.012018,-4.016417,11.288465,-14.072123
19.046008,-5.332975,25.858750,-17.928273
19.078308,-6.565884,34.004714,-20.511858
19.111503,-1.132797,31.576308,-11.149447
19.145402,8.347981,16.662892,15.312514
19.178590,12.532298,3.598314,19.249320
19.212504,19.117335,-7.128242,17.908370
19.245838,40.611300,-21.213085,13.566929
19.279273,55.557638,-30.652263,-1.807986
19.312647,51.456074,-24.981842,-18.358346
19.345319,27.790641,-13.263154,-19.627767
19.379026,9.940182,-2.491405,-20.835386
19.411960,-2.557548,7.747015,-17.903133
19.445250,-6.835391,18.605856,-13.328997
19.478607,-7.809716,26.786985,-9.151265
19.512046,-6.856341,25.925341,-5.317412
19.545625,-3.175872,21.261569,2.417482
19.578945,2.363760,11.605259,12.721147
19.612017,7.725167,1.542819,15.441207
19.645131,22.860803,-11.082108,13.794236
19.678884,42.704805,-26.002707,3.271494
19.711398,51.268721,-27.206135,-11.989393
19.745518,46.739179,-23.297611,-27.129668
19.779139,25.351760,-15.136384,-24.816038
19.812180,5.505813,1.646222,-20.089266
19.845783,-3.954764,14.023041,-12.347638
19.878418,-7.794452,25.649100,-5.208772
19.912190,-8.330174,26.794019,-3.606395
19.945704,-6.190878,24.625094,0.937962
19.978414,0.156527,13.613318,6.925326
20.012120,2.277865,5.726237,11.096922
20.045721,7.246310,0.517316,10.082044
20.078772,28.625948,-13.136256,-2.322608
20.111996,39.339784,-21.515813,-0.375005
20.144867,49.104585,-26.164171,-17.459441
20.178632,44.782448,-22.572890,-22.671206
20.212056,24.920040,-15.864397,-16.684141
20.245543,5.795971,-2.421522,-13.378528
20.278935,-1.485057,7.178073,-9.959636
20.312054,-7.832611,18.914569,-4.883298
20.345416,-9.940182,22.413072,-3.655478
20.378304,-8.274656,21.919998,-2.695219
20.413127,-5.435181,19.637045,2.760015
20.445412,-1.924708,14.254239,8.787632
20.477980,8.877269,2.403415,15.970793
20.511993,27.769840,-4.264824,11.974429
20.545469,49.094858,-17.675975,-0.425585
20.578706,61.090686,-29.761588,-24.783566
20.611989,47.688514,-30.513544,-24.534260
20.644958,16.413587,-12.088008,-20.892550
20.678631,2.682649,2.745050,-18.518464
20.712032,-5.671019,13.825213,-11.356852
20.747029,-6.401725,21.232838,-4.635490
20.778666,-6.664947,22.930687,-4.471631
20.812050,-4.538072,21.359136,-3.661613
20.845845,-3.121702,18.107844,2.569669
20.878837,1.145367,11.265420,8.989201
20.912156,10.329404,-1.670614,24.218215
20.945483,30.505912,-6.188634,19.899070
20.979128,60.175619,-25.813109,-3.287057
21.012073,57.434609,-31.443724,-18.281430
21.045300,37.086161,-25.252397,-18.575628
21.079081,11.223071,-7.270552,-24.099697
21.112072,1.655350,6.248491,-21.389065
21.145371,-1.810979,17.264606,-15.539672
21.178798,-2.108170,21.848918,-11.588051
21.212213,-3.262067,22.983810,-7.631192
21.245452,-1.909594,20.512606,2.009106
21.278757,-1.283338,16.433489,9.547669
21.312382,3.612680,6.598356,17.310397
21.345630,13.882376,-2.681452,20.572763
21.378654,38.655167,-16.393385,13.597755
21.412345,57.065290,-32.209298,-3.989182
21.445333,52.070957,-34.062925,-14.344324
21.478931,21.676080,-20.459483,-11.909334
21.512300,8.970346,-8.219588,-13.975304
21.545961,-0.017209,3.736135,-15.891782
21.578837,-4.962459,17.074859,-15.795412
21.612498,-5.446704,24.501938,-15.657590
21.645535,-1.158386,24.928270,-10.322969
21.678671,1.438368,23.177448,-0.832314
21.712404,4.316451,15.324485,13.721959
21.745927,10.934260,1.050942,22.853471
21.779717,16.611564,-5.411239,25.029279
21.811529,35.715432,-18.048885,14.059703
21.845658,58.162921,-34.935193,-2.487964
21.878748,53.891513,-34.876683,-17.003629
21.912966,20.641898,-18.395607,-25.348019
21.945980,7.935715,-4.369574,-26.430835
21.978859,-0.114626,9.053548,-21.792652
22.012177,-1.364145,21.318882,-15.556731
22.045475,-0.525546,29.485347,-10.458994
22.078394,2.590319,29.187857,0.374706
22.112181,5.087411,20.538046,15.773713
22.146397,5.284491,8.016223,20.826856
22.178412,3.403479,-2.604535,17.817986
22.212376,16.315421,-9.450401,19.430239
22.245870,55.655803,-29.748569,-2.728290
22.279387,61.638379,-35.295833,-18.595081
22.312332,43.927986,-28.739377,-18.880750
22.345369,14.561456,-10.135766,-11.746971
22.379155,5.527810,1.332122,-12.695558
22.412571,-1.229167,13.153166,-11.353261
22.445322,-1.752469,20.974554,-12.608615
22.478025,-1.851383,23.490650,-14.516114
22.512121,-1.143721,21.193033,-10.032362
22.545101,-2.546025,19.111350,-4.065200
22.578056,0.543952,11.956471,7.871219
22.612168,8.686324,1.156590,20.570368
22.645253,28.443682,-13.036445,23.511451
22.678137,61.017959,-34.479980,5.519730
22.712661,61.125702,-39.884185,-8.017271
22.745254,29.728217,-22.705474,-14.935414
22.779265,11.155283,-4.990742,-18.892572
22.812261,2.202894,6.830303,-22.958221
22.845509,-2.560540,18.972930,-19.513740
22.878189,-2.694172,23.445758,-15.608358
22.912267,-1.399461,21.134373,-8.304735
22.945411,0.074971,18.211846,-3.030120
22.978976,3.399588,15.334362,4.550792
23.012481,5.238850,7.766918,18.788271
23.045380,3.970027,0.549788,28.337137
23.078309,31.368155,-5.909101,7.864335
23.112095,55.123972,-24.190082,-11.840947
23.145043,62.789283,-33.953536,-23.228177
23.178085,30.162930,-27.966471,-8.264181
23.212280,12.118235,-11.800244,-8.218391
23.245504,0.547394,7.546344,-16.489156
23.278851,-4.304779,18.022099,-14.386673
23.312239,-5.041471,23.380962,-13.239959
23.345546,-2.066868,21.895307,-9.334128
23.378862,0.052824,21.181211,-2.647333
23.411991,0.090534,16.072401,8.179035
23.445431,4.028837,5.828144,18.640274
23.478940,14.616824,-3.813800,21.083045
23.511927,40.794164,-23.741452,5.935139
23.545406,53.569930,-34.692024,-4.169052
23.578940,44.093491,-34.418177,-11.424790
23.611916,20.511559,-20.417134,-7.124201
23.645513,10.149533,-7.514470,-12.476930
23.678778,4.367329,6.169629,-18.882396
23.719172,2.816580,14.613232,-19.030542
23.745279,3.754242,19.583024,-14.568788
23.779011,-1.175296,24.729395,-5.056884
23.812077,-4.809524,27.955397,3.070524
23.845417,-3.372353,20.978145,15.857364
23.878818,5.073943,12.115991,17.983042
23.913659,37.014632,-12.404802,11.566053
23.945041,57.303223,-33.506403,0.780238
23.979248,61.895765,-44.723788,-6.802020
24.011925,35.541696,-33.544262,-9.537942
24.045376,16.893940,-11.358648,-14.112826
24.079124,6.321217,8.208813,-20.722705
24.112052,2.008059,20.658508,-16.805950
24.145620,-2.718713,27.699658,-14.062696
24.179354,-3.214779,28.190636,-5.422013
24.212232,-1.439864,23.841264,1.487601
24.245335,2.443370,13.617658,15.936375
24.279111,7.461646,6.037644,23.637151
24.311937,23.916385,-1.839112,13.374039
24.345557,57.076663,-34.476239,-3.769655
24.379181,47.075426,-34.164083,-10.618215
24.411982,38.790295,-34.751282,-7.808070
24.445420,26.369182,-22.472779,-10.914059
24.478861,13.549570,-4.588352,-11.567400
24.512201,0.640621,13.101988,-15.190405
24.545469,-9.988367,26.257848,-14.645106
24.579389,-13.313733,31.016045,-11.411173
24.612026,-5.389391,26.351973,-3.235281
24.645365,-0.381141,20.089416,0.350613
24.678865,4.398156,11.877759,7.351509
24.711533,9.459080,4.457714,14.646752
24.745962,44.713163,-14.159515,7.950679
24.781210,57.900597,-31.655768,8.671659
24.811329,52.689730,-29.527247,-8.944608
24.845253,40.320095,-26.668767,-13.110518
24.878036,25.219326,-15.668814,-15.261785
24.911941,10.319228,0.221322,-14.956064
24.945261,-2.122984,18.407280,-14.012117
24.979395,-15.350822,33.886945,-6.925326
25.012038,-16.741604,34.633364,-6.355635
25.045247,-12.774420,29.547149,1.549702
25.078178,-2.949163,20.892101,4.484051
25.112654,9.610669,7.572681,11.736646
25.145111,36.495072,-0.706015,4.251805
25.178305,56.718119,-29.370571,-0.376651
25.211435,43.652194,-23.838720,1.894929
25.245415,49.026621,-25.533726,-9.107120
25.278376,45.240654,-15.341096,-21.526288
25.311948,26.791475,-5.574349,-15.498969
25.345414,-1.900765,16.805202,-9.642692
25.378218,-11.493027,26.511044,-12.837868
25.412210,-14.680721,29.468138,-14.623558
25.445266,-14.096216,29.950288,-7.075119
25.478196,-8.214350,26.092193,-5.265337
25.512291,3.319380,17.805116,4.025695
25.545497,16.135400,8.441359,13.461131
25.578256,48.343650,-8.271514,9.540187
25.612341,57.680023,-30.200790,5.011542
25.645795,48.032842,-25.354753,-5.091152
25.678522,44.811927,-23.334423,-24.074408
25.711373,29.242925,-9.407005,-20.037640
25.745550,9.968315,6.630529,-13.218859
25.779164,-5.900272,24.600403,-9.035740
25.812369,-14.287609,34.034941,-7.898005
25.845319,-14.041147,34.102730,-13.071910
25.878607,-6.267645,26.277002,-7.308861
25.913253,3.166445,17.256226,2.235965
25.945379,8.623923,9.463270,13.465022
25.978352,21.186748,1.523814,16.835580
26.012032,51.152897,-14.028877,13.888960
26.045268,64.419044,-24.488769,0.267412
26.079439,51.134940,-21.815547,-10.367413
26.112179,35.150979,-17.555362,-20.330341
26.145484,18.875363,-7.404782,-21.328908
26.178560,4.179228,8.195795,-16.296566
26.212085,-0.822288,19.065260,-10.976609
26.245532,-6.465174,27.426410,-7.546494
26.278987,-9.925368,31.965828,-6.367756
26.312083,-8.306530,28.604997,0.622515
26.345247,-3.604599,22.234548,6.954656
26.378377,4.671554,14.484689,13.736325
26.413188,19.301247,1.993992,25.382287
26.445599,54.054923,-26.660687,20.682152
26.478778,59.715018,-35.620408,6.435844
26.512207,47.804337,-30.863259,-15.179781
26.545455,37.821806,-21.861637,-23.471347
26.578223,21.664258,-4.900208,-21.153976
26.611889,7.825578,14.658424,-20.883421
26.645671,1.727927,25.511429,-15.228564
26.678548,-4.490486,30.137192,-10.719373
26.712190,-8.224975,29.468138,1.662234
26.745154,-5.512248,24.178709,9.847703
26.778957,2.971610,17.018593,10.369508
26.812069,7.328314,10.381180,10.437147
26.845744,10.771000,3.447175,11.560666
26.878998,43.866184,-10.189787,8.577234
26.912643,66.303348,-31.646939,-6.767153
26.945430,48.750530,-29.592940,-13.070862
26.978341,41.022070,-28.527183,-11.869679
27.014745,24.645595,-13.227688,-16.511902
27.044898,12.061820,2.150818,-15.260737
27.078710,7.244065,14.035012,-15.177686
27.112148,-2.964726,27.550314,-13.152867
27.145456,-13.289940,34.882070,-6.304158
27.179329,-16.861019,34.815030,-2.142288
27.212246,-7.152334,23.776319,2.423916
27.244958,3.178267,13.732883,9.178500
27.278945,15.684676,6.015198,10.483237
27.312516,40.993787,-4.953630,5.703791
27.345818,64.768460,-25.653739,3.705608
27.380225,46.697877,-23.942572,-1.616144
27.412200,40.274005,-25.908432,-11.420450
27.445418,24.889513,-19.364246,-18.980711
27.478706,11.812814,-5.286436,-15.571396
27.511902,3.571079,7.032321,-11.848729
27.545254,-7.241970,21.605598,-5.763947
27.579344,-9.636856,22.852423,-10.832653
27.611950,-8.010836,22.488492,-9.177901
27.645355,-6.489266,21.049675,-2.771238
27.678792,-3.744964,16.948111,4.896617
27.711970,5.993499,8.339302,14.697781
27.744589,23.104123,-1.301594,17.662806
27.778629,59.413188,-28.760327,2.254970
27.812111,51.931041,-28.715135,-5.090254
27.844896,43.570040,-32.736939,-8.426095
27.878238,24.909864,3.200713,-14.878549
27.912037,16.517738,-8.115287,-8.972890
27.945359,0.446983,12.819911,-16.324100
27.979008,-12.717705,26.167464,-12.684484
28.012101,-18.041403,27.381068,-11.667062
28.045444,-8.322542,18.978317,6.039889
28.077994,1.570054,6.618708,7.318887
28.112100,5.737161,-0.202766,0.453418
28.145131,7.707210,2.442472,4.341890
28.178938,11.082257,0.633888,11.664817
28.211940,34.663442,-10.345715,9.597799
28.245558,55.532797,-29.261182,-5.349286
28.278530,47.353912,-30.918328,-11.612442
28.312706,29.150895,-22.740939,-6.356084
28.345466,12.247677,-7.631341,-6.434946
28.379059,-1.282590,6.891058,-13.235470
28.411983,-7.882592,15.053482,-13.270037
28.445511,-14.103399,21.821683,-9.256913
28.478550,-14.086340,24.811100,-6.064729
28.512074,-8.580078,22.649657,-1.145666
28.545549,-0.300184,14.584202,5.850141
28.579096,7.141261,7.629845,7.765870
28.612136,38.355732,-5.058381,4.249261
28.645820,56.514006,-24.703058,3.435203
28.678749,46.431214,-20.386158,2.590020
28.712227,45.707690,-30.590909,-10.019942
28.745890,31.747499,-25.549139,-10.779679
28.778466,15.809628,-13.982038,-13.263303
28.812094,-1.364744,9.181942,-11.878507
28.845387,-10.227198,19.355866,-4.285475
28.879226,-11.866686,24.927522,-0.520608
28.912506,-11.798000,29.768322,-7.204560
28.945477,-5.929901,22.839704,-1.799307
28.978777,0.266963,16.030351,1.290970
29.012171,10.052415,5.760206,6.331243
29.046312,35.351799,-10.063937,0.539014
29.077972,50.785674,-28.495908,1.484608
29.112548,46.866226,-30.146021,-1.421608
29.145418,46.050073,-33.807634,-13.500787
29.178138,30.027054,-22.580073,-14.377545
29.212160,6.894051,-1.314763,-19.712765
29.247510,-6.517699,13.318821,-16.654362
29.278362,-12.784895,23.430644,-6.476247
29.312277,-10.319677,26.053885,-7.673990
29.344748,-5.710225,23.586422,-5.997091
29.378763,0.467634,16.368993,-0.179422
29.412222,2.890952,13.415191,3.962545
29.445776,8.852129,5.040423,8.229165
29.478847,28.818089,-10.979902,10.547433
29.512808,47.368278,-26.816914,-1.781499
29.546498,49.027968,-30.063118,-16.578493
29.578213,38.485921,-29.434917,-24.981244
29.612914,17.939795,-17.571823,-25.703271
29.646469,4.260335,-3.399738,-25.280679
29.678174,-3.883683,11.450229,-22.631999
29.712768,-6.525630,24.078448,-15.893428
29.745320,-4.662725,30.769134,-9.291331
29.778202,-2.576253,29.368027,-0.693745
29.812284,4.057868,15.217042,15.474577
29.845350,7.099361,4.211401,18.161267
29.878081,10.440289,-1.827140,14.620415
29.912176,26.267126,-8.397513,8.360551
29.945424,44.528653,-23.974147,-3.859142
29.978182,50.936065,-32.308211,-18.443942
30.012168,38.368900,-31.027717,-19.173900
30.045402,13.707743,-16.005660,-13.692779
30.078041,1.973790,-0.960857,-20.406060
30.112180,-5.314569,12.817966,-24.808257
30.146789,-6.098399,21.174776,-18.099464
30.178249,-2.892000,24.987230,-9.697910
30.212244,1.005750,20.602841,1.741844
30.245456,3.639167,15.500765,9.278910
30.278028,4.897963,10.075909,9.440225
30.312308,8.757105,4.329320,18.109939
30.345269,19.050295,3.754542,17.605193
30.378739,51.601078,-9.398475,-1.020266
30.412156,58.228465,-22.146408,-15.924853
30.445341,50.593831,-33.306031,-15.876817
30.478507,21.586294,-25.732451,-9.068662
30.511527,6.348452,-8.639486,-18.483598
30.545892,-2.980588,6.670634,-22.569449
30.578369,-2.553058,8.537429,-21.082596
30.612202,0.684317,10.524987,-15.400803
30.645315,3.569134,15.440608,-7.891271
30.678024,3.168839,18.070583,-3.867522
30.711664,3.190388,16.918781,4.115181
30.745320,2.740561,11.277242,13.662102
30.778216,6.474452,6.302512,15.047646
30.812260,17.491764,7.233441,14.003587
30.846177,30.564422,7.163408,14.784573
30.879336,39.846176,5.818118,11.119518
30.912052,36.941157,6.169030,9.470453
30.945218,32.538362,7.011221,4.806232
30.979244,23.275015,7.615778,-2.642395
31.011959,18.499909,5.371883,-4.708964
31.045374,12.850289,4.535977,-5.278954
31.078085,11.095127,3.986338,-5.267731
31.112133,10.249943,2.534652,-5.945763
31.145594,9.529562,1.727329,-6.277671
31.178795,11.063103,5.114497,-6.605539
31.212022,15.217640,1.818611,-11.578473
31.245505,17.371601,-3.336439,-18.016861
31.278040,11.754902,5.014685,-5.545169
31.311828,14.310505,8.738550,-3.805869
31.345935,22.479363,8.862155,-0.784129
31.378014,27.795878,8.120973,5.936186
31.412235,27.480580,9.129716,3.526486
31.445870,26.376515,10.116761,4.451279
31.479604,24.313387,10.089227,3.896702
31.511940,18.980262,9.245839,2.714972
31.545471,11.790368,7.671296,1.720445
31.578868,7.939007,6.538200,1.688870
31.611989,4.813565,5.091152,1.674056
31.645504,2.434840,4.129547,0.502501
31.678523,2.159198,2.994804,-0.886186
31.711438,2.267689,2.136003,-1.539227
31.745573,1.971396,1.717153,-0.506092
31.778852,2.487664,1.163773,-0.492475
31.811605,3.886078,1.774167,-0.391915
31.845647,5.250672,2.843665,1.024755
31.878951,8.825043,3.195625,5.267282
31.911305,12.605473,3.533070,4.923253
31.945519,16.891995,4.685171,3.653533
31.980250,21.129584,7.796248,4.469536
32.011983,22.993836,10.688247,2.205587
32.046314,25.494968,14.634931,-1.522767
32.078107,33.914030,10.532320,-15.165116
32.111991,30.329333,8.270317,-24.799877
32.145516,25.619471,6.217964,-18.130440
32.179177,21.385324,4.185663,-18.762981
32.212000,14.858198,5.253216,-20.730636
32.245558,9.013144,7.323675,-20.654617
32.278209,6.699215,9.233119,-13.954354
32.311370,3.000790,11.193292,-6.322714
32.345616,2.650775,11.038562,-3.813800
32.378325,1.245778,11.281731,-2.663794
32.411989,-0.641519,12.403605,-0.271602
32.445534,0.654389,12.940523,0.670849
32.478265,4.122214,14.707358,3.441339
32.511988,7.745220,10.127086,8.427442
32.545518,12.346890,4.944353,9.578196
32.578770,25.393361,-1.351126,1.013532
32.611979,39.718680,-6.313586,-10.287204
32.645401,42.767655,-13.389153,-17.239017
32.678601,37.656750,-14.643460,-13.583539
32.711947,29.558073,-11.640126,-15.860357
32.745521,20.475046,-6.583841,-21.807616
32.778085,12.791629,-3.791803,-19.448944
32.811320,5.202786,2.728141,-16.664239
32.845567,2.725896,9.875537,-16.109961
32.878268,2.041728,18.472374,-14.336991
32.912019,-1.911988,26.770824,-9.251825
32.945635,-3.832655,26.629860,-5.398968
32.978599,-1.351425,21.295837,1.712364
33.011985,3.696181,13.171572,11.667062
33.045563,10.491617,0.465390,22.328972
33.079370,29.897913,-8.985161,14.843383
33.111388,49.545732,-16.693718,-4.696544
33.145626,53.267352,-22.793015,-24.085930
33.179806,41.824006,-22.824889,-24.618659
33.211981,20.741111,-15.697096,-16.113253
33.245509,4.505450,-2.951707,-16.341758
33.279672,1.059322,5.264888,-23.130759
33.312450,-1.285134,16.995997,-26.670713
33.346013,-1.953439,20.917690,-19.396868
33.378534,-1.493137,22.839255,-8.177089
33.412767,-2.095600,20.535352,7.568641
33.445543,1.309675,15.268968,16.081828
33.479087,7.300630,5.524219,24.721314
33.512712,15.273457,6.276773,23.638647
33.545431,43.256838,-4.171896,1.860810
33.578617,69.104365,-24.441781,-14.043242
33.612685,53.211087,-29.955824,-17.305758
33.648506,25.796050,-18.538068,-19.647221
33.677935,8.704132,-5.529008,-22.110793
33.712460,4.465346,5.997390,-25.384831
33.745383,7.637327,16.967864,-28.206798
33.778065,11.041405,28.052366,-25.384981
33.812151,10.205350,34.214962,-12.454034
33.845495,6.181451,35.267251,8.073836
33.878451,5.112102,21.837844,19.266529
33.912213,7.251248,4.650005,31.473802
33.945899,21.581805,-1.849587,26.228518
33.978472,53.900941,-8.174695,-4.198981
34.012234,72.642223,-27.243995,-16.771533
34.045943,57.545794,-24.678815,-18.663169
34.078447,23.382459,-9.676811,-14.492321
34.112151,11.059961,-1.109902,-17.181554
34.145311,6.478492,7.996021,-24.291839
34.178421,7.174631,24.123191,-38.216714
34.212074,2.969066,36.091036,-40.567904
34.245381,1.768630,37.227574,-7.006732
34.278388,6.769248,24.945180,10.571227
34.312020,14.836799,8.156438,28.956509
34.345290,18.999716,-7.931226,27.481778
34.378463,33.046400,-14.129437,19.604124
34.412006,47.096376,-25.168747,3.071272
34.445382,50.718185,-23.197799,-16.561135
34.478645,43.782833,-20.533257,-27.998794
34.512008,11.241627,-9.300159,-23.585973
34.545490,-0.945444,0.723973,-25.290556
34.578586,-7.732799,10.255480,-22.137729
34.612068,-6.788103,16.240450,-14.041596
34.645420,-4.006391,21.251543,-7.868974
34.678479,1.967655,21.323521,4.711807
34.711985,4.176235,16.170118,14.175377
34.745603,2.843366,6.626938,18.664815
34.778811,6.500340,-0.469879,16.995099
34.811988,22.057520,-6.608681,6.510366
34.844716,47.302435,-28.803723,-11.658832
34.878423,49.113414,-32.996868,-15.488793
34.912216,31.432651,-25.896311,-18.706865
34.945356,13.466967,-12.858369,-17.597711
34.979272,3.423831,-2.695668,-23.358067
35.012070,-2.699409,9.734872,-24.619258
35.045256,-4.046495,20.137601,-23.940776
35.078711,-1.588011,26.124217,-17.233181
35.111946,1.161529,27.889106,-4.534630
35.145303,4.660031,22.975280,11.567250
35.178976,10.774143,5.718007,25.039455
35.211949,10.471116,1.396767,23.434684
35.245253,34.114851,-7.226408,9.490655
35.279202,51.981620,-20.066072,-1.860960
35.311996,56.967424,-22.483105,-15.522613
35.345437,41.527115,-24.704704,-21.465832
35.379005,17.898045,-14.534071,-13.000231
35.412020,4.136580,-1.498076,-18.638777
35.445418,-2.110564,6.387060,-20.700109
35.478937,-3.679121,11.655539,-16.498584
35.512097,-1.850335,13.172320,-8.779103
35.545334,0.317542,18.850522,-5.759458
35.578393,0.222519,28.302419,-1.954187
35.612240,7.362433,26.042961,1.522467
35.645324,11.621870,11.819249,13.540442
35.678762,22.733457,-6.336780,21.497107
35.712029,42.377386,-19.304539,3.715185
35.745614,57.030423,-33.705278,-20.404714
35.778817,48.841812,-38.715324,-21.892314
35.811918,29.123810,-21.641812,-16.729932
35.845339,6.599553,3.741972,-22.767127
35.878124,-2.248834,14.957710,-25.751606
35.912122,-5.404205,20.891502,-20.980989
35.945667,-4.481956,26.756159,-17.414698
35.979056,-1.981572,28.149634,-9.383960
36.012053,2.893795,24.634820,1.197742
36.045324,5.534544,15.926948,10.248596
36.078355,10.645599,3.006028,17.358582
36.111993,27.505720,-5.284491,12.697503
36.146308,46.755789,-12.566416,-6.871155
36.178611,59.656956,-21.640166,-27.759814
36.211986,50.142508,-26.338356,-31.489216
36.246244,25.993129,-16.464615,-22.621375
36.278589,3.504937,2.320214,-21.186448
36.312038,-4.738893,10.123046,-20.600447
36.346411,-7.357495,13.995656,-20.549568
36.378632,-7.665460,19.054336,-18.096920
36.412078,-4.488540,27.176656,-10.855399
36.446273,-0.075869,29.062905,-0.446385
36.478242,5.999335,22.134287,8.530396
36.511980,15.354863,0.825580,21.411811
36.546319,24.277024,-2.823014,14.308110
36.578476,46.897052,-11.252850,-6.891507
36.611982,53.106935,-22.772664,-19.652758
36.647446,44.239693,-26.231062,-21.970877
36.678448,19.243185,-15.191303,-16.507562
36.711570,4.450381,-3.131129,-18.480305
36.747458,-4.244024,6.964832,-20.777325
36.778486,-6.234424,11.466989,-20.707890
36.811977,-5.440718,15.148056,-16.566222
36.845581,-2.824660,25.226209,-6.347704
36.880900,-1.213754,26.924058,-0.507290
36.912016,3.625699,21.994071,8.973639
36.945390,12.808688,3.126191,23.628172
36.978673,26.046253,-4.951685,14.796246
37.011921,44.683234,-19.148760,-14.747911
37.045178,52.370841,-25.771658,-25.277986
37.078020,44.017473,-28.189439,-27.572162
37.112403,16.227730,-14.458801,-18.710606
37.145949,2.434541,-0.571935,-21.111926
37.178213,-5.873635,11.520562,-25.671696
37.212217,-8.521118,20.540889,-26.768130
37.245683,-2.237761,26.117932,-17.189186
37.278579,3.046730,32.251048,1.786288
37.312177,12.677152,19.233608,13.495400
37.347649,12.354222,4.390823,23.156947
37.378794,12.941870,-1.676151,26.086357
37.412361,31.106429,-5.302448,11.401296
37.446214,61.894418,-26.572547,-19.456875
37.479097,62.428344,-30.712718,-32.435558
37.512411,23.097987,-14.724267,-27.316871
37.545232,2.689383,0.218628,-23.854732
37.578723,-5.200990,8.686623,-19.163126
37.612083,-5.725190,16.241348,-14.986591
37.645066,-3.076210,23.198248,-11.297145
37.677930,-0.815255,27.219902,-5.634057
37.712392,0.739685,21.764818,5.878873
37.745251,1.215101,12.711420,9.505619
37.778625,1.827290,5.430543,8.372074
37.812057,10.914807,-3.230941,11.707615
37.845349,35.307655,-3.534866,-0.355402
37.877977,61.503101,-23.626077,-11.083454
37.912258,53.785117,-26.224328,-19.363797
37.946021,30.681593,-20.516347,-19.012286
37.978089,13.219009,-7.817796,-16.986869
38.012413,-0.145303,2.356727,-21.986739
38.050612,-7.712149,14.230745,-22.186812
38.077976,-7.926138,19.793422,-19.591704
38.112092,-2.119543,26.392227,-10.282715
38.145271,2.097096,28.256928,0.071978
38.178294,7.193336,22.274053,10.872159
38.212307,16.646730,1.947154,23.708381
38.246462,20.412345,-8.011584,26.896374
38.278684,37.428993,-11.441400,0.715443
38.312175,51.676049,-20.287543,-20.494499
38.347280,48.381061,-22.232303,-32.068783
38.378676,24.724457,-14.201415,-26.967455
38.412029,5.863460,-4.416412,-21.850713
38.446852,-2.561289,7.388471,-21.393554
38.477998,-3.690345,12.612656,-16.755221
38.512168,-2.288340,16.861767,-12.989157
38.547475,-1.228718,28.191085,-8.298001
38.578472,0.040553,30.309580,-2.157253
38.612228,5.747187,19.719648,10.985588
38.645499,12.250969,3.248898,20.695171
38.678432,20.366106,-7.117617,20.209430
38.712181,39.745915,-17.760074,-1.182030
38.745799,52.418428,-25.604956,-16.559788
38.779116,45.757521,-28.932865,-23.728283
38.812135,23.525517,-17.795988,-18.307617
38.845400,7.653638,-4.407284,-17.012607
38.878292,-2.023771,8.890736,-23.579389
38.911973,-3.330154,17.801076,-25.556471
38.945605,0.255889,29.364286,-20.188629
38.978411,0.848176,28.518654,-7.567145
39.012199,3.227050,23.064467,5.569112
39.045296,8.478620,6.789300,25.857403
39.078362,12.458374,-4.508443,26.278948
39.112167,24.730293,-5.786842,14.038005
39.146057,48.569162,-17.962092,-1.587562
39.178830,60.498399,-24.767853,-21.584648
39.212063,36.034919,-22.262381,-25.286216
39.245248,13.875792,-13.501984,-20.953005
39.279267,-0.689704,-0.929732,-21.212037
39.312222,-4.618281,5.601435,-19.799258
39.345265,-5.360360,11.460854,-15.514981
39.378354,-2.026016,16.895437,-9.316471
39.414215,0.472273,19.153549,-5.344947
39.445834,4.054426,19.197394,0.141263
39.478232,7.476012,12.719501,8.785388
39.511989,10.959999,1.970049,15.182474
39.545520,22.181873,-5.615202,10.308154
39.577986,27.605083,-10.557160,5.522423
39.612422,37.920121,-17.102992,4.082409
39.646547,43.156128,-23.519083,2.243297
39.679106,36.592938,-19.945908,-5.317861
39.712024,15.958971,-4.884795,-14.722172
39.745945,5.046110,-1.269421,-25.307166
39.778970,1.357561,4.304479,-32.145550
39.812113,-0.454017,10.841781,-26.043410
39.845618,1.906900,13.745154,-18.300135
39.879302,7.311704,19.990053,-5.162831
39.912553,8.350825,21.852360,2.690879
39.946142,11.506196,12.326688,14.164603
39.978329,16.425857,1.534588,17.577659
40.012410,22.480261,-4.885693,12.117338
40.046057,40.651404,-14.876155,-6.253130
40.079163,42.706152,-18.647457,-19.959975
40.111638,36.853766,-16.403112,-21.763322
40.145381,21.729652,-10.592925,-18.401593
40.178297,11.022999,-5.323548,-14.148591
40.211906,2.122835,2.605134,-15.326131
40.245408,1.778955,12.886652,-15.410680
40.278089,1.793171,22.374763,-14.181512
40.312401,-1.804095,22.434620,-10.219266
40.345855,-3.671190,19.483512,-1.657296
40.378705,-4.298045,9.399672,14.780533
40.411985,-0.789815,0.544700,17.000636
40.446054,24.527676,-13.255821,6.743809
40.479196,32.354002,-21.284165,-6.562591
40.512019,36.337198,-22.819502,-14.467779
40.545488,35.458196,-21.451765,-14.691795
40.578352,21.121952,-12.276109,-19.058077
40.612108,11.010878,-7.248405,-14.618470
40.645418,1.340053,-0.817649,-15.057522
40.678621,-1.343794,4.919512,-16.334725
40.711964,-0.990038,14.260973,-11.835710
40.745504,2.800119,17.399734,-9.702549
40.778879,2.730535,17.668642,-7.093824
40.811985,1.714010,17.113916,7.769761
40.845337,-3.259972,10.337484,17.091320
40.878767,5.857624,3.886377,8.159132
40.911984,28.564893,-9.966220,-3.755290
40.945854,44.518328,-20.994307,-15.986655
40.978412,48.522623,-29.676291,-25.200172
41.012029,31.913453,-22.796307,-20.941483
41.045631,13.174864,-8.465301,-12.207572
41.078628,4.645665,-0.550536,-11.890329
41.111984,-1.452285,4.961412,-14.452516
41.145499,-3.754093,12.248724,-16.376176
41.178730,-3.213433,18.789019,-12.384301
41.212047,-0.877506,20.805906,-3.116614
41.245619,0.563256,19.655302,4.039013
41.278756,0.672346,15.550446,11.436462
41.311994,8.808133,3.267603,18.706715
41.345917,26.526906,-7.156674,11.569644
41.385446,41.898379,-21.096962,0.848326
41.412056,52.809594,-25.219176,-11.032277
41.445376,48.803653,-25.931028,-19.408541
41.478280,23.249576,-8.673006,-23.108911
41.511918,10.603250,-2.238658,-18.246563
41.545445,-0.069135,7.099959,-18.396505
41.578914,-3.266855,16.828995,-19.259197
41.612218,-4.219183,26.213703,-14.463739
41.645584,-2.517294,24.245150,-10.820083
41.681556,0.300184,21.055960,-4.610200
41.712175,4.343835,13.523233,7.110883
41.745257,10.190834,4.326327,17.202804
41.778277,17.837739,-3.733292,17.935605
41.814273,32.368667,-3.149685,3.504488
41.845533,42.067476,-0.539014,-2.883320
41.879040,48.888500,-6.153019,-7.480801
41.912529,28.578660,-2.476591,-8.202528
41.945464,17.292440,-0.836504,-7.699429
41.978733,7.881694,-0.623861,-6.629931
42.012200,4.529093,-0.277887,-4.930885
42.045507,2.989268,0.151139,-4.322885
42.078502,1.620334,0.577173,-4.614839
42.112210,1.473983,1.670764,-4.437063
42.145302,2.162490,4.399054,-3.476355
42.178604,7.584503,8.732265,-2.395185
42.212111,18.559018,16.032446,-5.212064
42.245864,20.993708,13.086126,-8.648315
42.278858,13.529967,5.019922,-9.212918
42.312045,12.347040,1.503912,-5.304543
42.345318,12.577939,-0.818996,-2.900679
42.378323,12.622831,2.304651,-1.084762
42.411259,14.833058,7.585102,1.160032
42.445258,18.113082,6.735878,4.929837
42.478063,18.518913,4.518768,6.589078
42.511986,13.832844,2.392192,2.215613
42.545294,11.837655,0.503698,-0.959660
42.578511,11.660178,0.816602,-3.016353
42.612049,11.624114,1.182927,-1.863354
42.645893,13.088371,0.735794,-0.227906
42.678738,12.026654,0.394010,-0.521206
42.711937,9.757169,0.380243,-1.470242
42.745363,7.702721,-0.227757,-2.479883
42.778239,6.765507,-0.792509,-2.333981
42.812532,5.734916,-1.365492,-2.827055
42.845317,5.033390,-1.755162,-2.219205
42.878629,5.295415,-2.431249,-1.949099
42.911792,4.670356,-2.231476,-3.139509
42.945428,5.483067,-2.549617,-4.922205
42.979049,5.609067,-2.898285,-6.077599
43.011952,4.569048,-2.065671,-5.557140
43.045323,4.380498,-1.802000,-5.494590
43.078650,3.813950,-1.465154,-5.952048
43.111989,3.038201,-0.505494,-4.056222
43.145316,3.601756,0.436658,-0.852516
43.178772,4.190751,1.530249,0.135726
43.211996,7.622512,2.069712,0.127496
43.245345,11.159174,2.190025,-3.488027
43.278718,13.622446,1.417867,-3.152678
43.313834,24.669538,0.745222,-1.836269
43.345335,30.282495,2.370943,-7.823782
43.378700,33.848337,3.504638,-13.804861
43.412140,29.928290,8.204474,-16.600491
43.445417,23.532850,11.504250,-22.049140
43.480954,11.144509,15.269566,-25.155578
43.511940,2.864166,15.966753,-19.999929
43.545273,1.608662,18.308066,-11.992086
43.578299,4.978770,20.163040,-6.022081
43.612640,7.660372,22.197436,-0.094275
43.645333,7.445784,22.051983,5.554746
43.678511,6.065029,19.243035,6.487022
43.711987,9.306744,13.547326,9.644189
43.745350,11.422845,4.731261,10.850760
43.778477,9.341461,-2.538543,15.023104
43.812046,22.977076,-9.303152,12.326838
43.846374,43.572584,-17.818884,-8.092990
43.879286,51.966656,-23.949755,-29.055273
43.912097,43.631394,-17.626293,-41.469203
43.945491,27.582188,-6.867713,-39.876254
43.978558,9.916539,5.432338,-24.199958
44.012905,1.548655,19.355866,-23.430793
44.045862,-2.277865,27.125627,-19.752121
44.079123,-4.466243,38.988422,-16.186279
44.112081,-0.147698,30.943468,-11.173240
44.145584,11.954975,21.743719,-0.283124
44.178182,15.118577,16.078835,7.728759
44.212293,22.238289,-0.661871,19.294363
44.245664,25.489581,-11.265869,23.010746
44.279111,41.475787,-14.859096,4.057120
44.312578,54.733853,-25.143307,-27.393787
44.345287,46.345618,-24.716376,-35.077803
44.379363,30.780357,-19.149808,-30.857573
44.411826,7.593482,2.511458,-22.327177
44.445396,0.121211,12.712318,-22.184118
44.479384,-2.816580,20.197159,-22.624966
44.512710,-4.012975,28.481542,-27.006960
44.545856,1.061866,30.968309,-16.915339
44.579459,10.634825,26.267874,2.894394
44.611728,14.639270,14.954718,10.917351
44.645938,17.044032,-8.587560,25.628150
44.678081,21.973570,-9.710929,15.971541
44.711936,36.000053,-16.628624,2.083778
44.745935,56.143340,-27.481478,-17.892957
44.778244,52.208329,-33.479916,-26.465852
44.812128,28.987784,-19.685979,-21.212786
44.846456,4.971139,4.625015,-22.096876
44.879357,-1.338855,12.439070,-26.516880
44.912383,-4.497219,19.039671,-25.991483
44.945874,-2.685343,24.342119,-21.806868
44.980789,5.325792,27.689332,-4.495873
45.012550,6.962288,27.564380,1.179785
45.045599,10.633927,18.284572,11.359695
45.079118,17.546234,-6.486722,26.843999
45.112095,26.973740,-8.652056,13.779571
45.148680,45.631222,-15.406490,-14.561755
45.179151,54.535726,-26.235252,-24.070816
45.213769,45.671327,-30.881067,-27.420723
45.246612,18.561561,-10.663407,-21.268453
45.278701,3.890417,5.520179,-22.132790
45.312011,-3.157466,13.214071,-24.496850
45.345838,-5.215955,21.832307,-25.094224
45.378427,-3.593975,28.310500,-21.742671
45.412301,3.267753,30.191961,-5.897429
45.445994,7.906684,25.466087,5.006155
45.478687,14.726063,10.168538,17.693034
45.512015,19.198592,-6.858735,25.989388
45.545764,32.444985,-9.834385,5.297510
45.578806,44.736208,-19.390883,-17.276129
45.612127,54.726970,-27.756372,-26.999927
45.645787,39.468028,-21.503841,-29.975727
45.679172,9.640448,-5.898027,-23.768388
45.712082,-2.678609,4.849479,-25.949583
45.745913,-5.867949,11.206012,-20.054699
45.780193,-4.878809,15.240835,-16.586424
45.811933,-0.999765,19.453733,-10.607740
45.845393,1.384347,23.991655,0.311557
45.878426,3.245756,21.455955,7.311105
45.912313,4.493029,8.997581,15.220334
45.945849,3.036704,1.460216,18.135977
45.978523,10.770701,-0.666210,13.907666
46.012083,43.739436,-15.844794,-21.458350
46.047555,54.991089,-25.766271,-30.951249
46.079049,39.905434,-27.755026,-33.600977
46.112328,19.400909,-14.532425,-22.925299
46.145585,5.961625,-3.169887,-15.927546
46.178362,-3.443583,8.393323,-17.172725
46.212751,-5.291674,15.847487,-21.849217
46.246135,-3.212684,25.761033,-22.968995
46.278112,1.978579,31.011256,-12.812130
46.312480,6.485825,32.683516,1.055581
46.346083,15.158082,18.008182,20.151069
46.379767,23.587320,-2.995702,31.171673
46.412417,31.633322,-12.396871,21.533770
46.446398,44.457273,-20.064126,-10.546536
46.478264,55.741100,-27.072504,-34.110810
46.512671,42.070169,-18.138970,-45.224044
46.546195,17.262212,-4.783486,-31.448363
46.579589,-1.744089,7.844433,-23.656156
46.612742,-7.105496,15.069045,-21.107437
46.646360,-8.628113,24.198162,-19.109554
46.680272,-2.946320,29.994283,-12.596943
46.712680,1.478622,28.916105,-1.038821
46.746533,7.101605,25.521305,7.442492
46.778507,17.954610,6.399032,14.865979
46.812960,28.608140,-14.736239,14.901594
46.847116,31.970767,-20.546276,7.372908
46.881279,34.712824,-22.922756,-8.580227
46.911940,39.469973,-22.652351,-29.080712
46.945670,35.340427,-18.528191,-40.351370
46.978496,17.169433,-8.284234,-25.821489
47.012058,-1.073539,7.691199,-21.360633
47.045087,-9.251526,16.867005,-22.942808
47.078427,-11.393964,21.408967,-17.649338
47.112012,-3.095813,26.264432,-10.093417
47.145532,0.214738,26.129604,0.239279
47.178298,6.349201,18.601516,6.197612
47.211978,10.152376,7.009575,11.261679
47.245833,14.031271,-5.291375,18.467137
47.279836,25.426132,-10.466028,16.548864
47.312042,43.880998,-14.625503,-3.581405
47.346156,49.587931,-17.325511,-29.212548
47.379771,43.157774,-19.835771,-33.455225
47.412229,25.166053,-12.511946,-18.768069
47.445389,10.432657,0.341036,-13.149575
47.478488,1.421608,8.171852,-13.737821
47.511806,-6.068021,17.833997,-13.809201
47.545882,-7.208301,24.857938,-13.629480
47.579181,-8.021461,27.346650,-10.493263
47.612342,-4.722731,26.286729,4.208109
47.645470,-0.976720,19.435626,10.065434
47.678636,9.434240,5.759907,16.423762
47.711906,30.812381,-9.015539,6.623945
47.745390,46.828216,-18.019704,-12.778610
47.779011,56.637461,-27.978592,-23.772578
47.811918,49.486174,-27.161841,-26.903856
47.845393,25.075818,-8.947152,-21.856101
47.878578,11.270957,2.689084,-18.459655
47.911924,1.179785,10.991873,-19.318904
47.945382,-7.493670,21.086487,-19.193803
47.979276,-9.801912,26.900265,-18.479258
48.012022,-5.591409,30.790233,-7.323227
48.045390,-1.961669,32.126844,6.078347
48.078334,6.926523,23.854732,11.201672
48.111919,18.961407,4.728418,15.609555
48.145428,32.661219,-5.767239,20.396633
48.178217,56.272632,-12.141580,-4.150946
48.212197,61.561762,-21.424530,-32.060253
48.245394,50.698581,-20.774631,-30.694163
48.278670,22.623919,-6.774486,-20.791690
48.312185,6.559599,5.444908,-23.914140
48.345676,-4.848880,16.496938,-26.385044
48.379159,-7.848773,25.656882,-23.637899
48.412017,-6.733035,32.794102,-17.674927
48.445894,-1.352323,29.705023,-0.862692
48.478953,1.627816,27.260605,6.083135
48.512320,9.814333,9.165032,22.359350
48.545874,17.135614,-1.708324,22.100168
48.579379,37.142726,-7.064494,8.842402
48.612159,65.589551,-29.367129,-19.657546
48.645797,60.436895,-30.587168,-20.506920
48.679714,33.496825,-12.648420,-25.943149
48.712162,12.299004,2.033348,-25.409522
48.745848,-0.493672,10.999505,-27.756223
48.779198,-7.247657,21.622957,-24.368456
48.812291,-7.840841,26.485156,-21.818091
48.845847,-4.393367,24.836838,-15.484603
48.879618,3.251592,32.555122,4.760591
48.912116,9.639250,23.559337,13.894497
48.945797,17.937700,6.538499,23.043667
48.979069,18.619473,-1.785839,22.487743
49.013419,51.966057,-8.264780,-0.383984
49.047828,64.389714,-27.237411,-28.891564
49.078429,61.386979,-24.436693,-39.130433
49.112304,30.969206,-4.135233,-35.318579
49.145423,3.726409,10.606842,-32.891370
49.179446,-8.134740,21.460744,-27.721057
49.211936,-10.407667,29.469485,-20.514252
49.245651,-6.077898,34.890450,-9.717963
49.279176,1.701590,30.857722,2.896489
49.313429,6.814740,21.987786,15.318649
49.346004,9.553954,10.528578,24.931263
49.379864,12.087559,0.235538,20.202396
49.412043,21.889172,-10.448370,16.250775
49.446283,48.966315,-21.008972,-0.820343
49.479626,58.158432,-22.948195,-20.162591
49.513242,45.895791,-9.176105,-34.852142
49.545361,29.286023,-6.166038,-30.849193
49.579688,11.884942,-0.489332,-21.540803
49.613259,-1.367437,10.440738,-22.891031
49.645480,-4.275598,19.541423,-18.177727
49.679717,-4.120867,25.203913,-12.496383
49.712559,-0.436209,26.164471,-5.362006
49.746142,1.923510,26.362748,5.123625
49.779189,6.409507,18.467885,16.893192
49.812248,7.258132,10.357387,18.315848
49.845463,13.940138,-0.128693,18.576376
49.878661,36.188603,-10.064087,-0.567745
49.913333,46.005330,-19.187967,-19.193653
49.945751,50.075019,-29.112437,-26.112844
49.979615,37.556489,-21.997214,-27.317021
50.012696,19.541423,-8.783592,-21.692690
50.045640,3.054961,3.704561,-17.085184
50.079038,-3.204903,9.836779,-17.304860
50.112481,-7.316493,19.833377,-16.351634
50.151114,-5.584076,27.638154,-16.456983
50.178879,-3.143250,27.499435,-9.245390
50.212406,1.428492,24.039690,9.796226
50.245595,5.836524,17.747205,16.709730
50.279823,14.408820,5.457179,21.614876
50.312672,31.898040,-1.701889,15.000957
50.345238,53.001886,-12.010792,-10.373548
50.379045,58.790673,-25.143158,-23.921323
50.414694,49.188235,-28.636273,-28.720073
50.446149,17.064833,-11.792463,-21.631636
50.479418,2.596006,1.369682,-19.378612
50.512678,-3.120804,8.513786,-19.530500
50.545335,-4.745477,14.690448,-17.257124
50.578955,-4.032279,18.131787,-15.567805
50.613116,-2.954999,25.964099,-6.157957
50.646223,0.229552,31.360223,3.445080
50.678727,8.234253,24.010360,7.836352
50.712758,16.567270,4.452925,24.700813
50.745543,21.096812,-3.027576,22.619729
50.779020,41.186827,-11.546599,-3.920047
50.812871,56.295677,-25.318090,-23.395178
50.845626,57.403932,-35.564292,-30.234460
50.879001,23.728134,-15.228265,-22.654895
50.912774,6.233377,0.429176,-20.018186
50.945536,-2.670229,11.794857,-19.286432
50.978880,-6.240709,19.731470,-19.378762
51.012793,-7.928832,28.981499,-19.393726
51.045549,1.592351,30.924314,-5.723992
51.078947,6.399630,27.535799,5.080677
51.112662,11.653145,10.458546,19.114343
51.145634,12.539929,2.352387,19.690468
51.179194,27.113207,-3.422783,13.403369
51.212865,54.936470,-13.119197,-18.734249
51.249799,61.327570,-15.590850,-42.293137
51.278720,48.206877,-9.590168,-41.807845
51.312198,17.284808,-0.092629,-18.426883
51.345502,5.610713,8.670163,-17.569129
51.379620,-2.507268,23.026458,-20.524727
51.413310,-4.675893,33.931837,-21.214432
51.445332,-3.082046,34.883716,-12.970452
51.479053,1.530398,32.184157,2.361216
51.513232,4.769121,21.847272,16.287138
51.545871,16.574153,-3.838342,26.515832
51.579575,30.002214,-10.393900,14.931972
51.612908,49.470911,-11.100215,-29.433570
51.645695,56.566081,-21.843381,-27.248035
51.678899,47.900408,-22.477418,-31.447016
51.712918,21.985392,-6.728695,-21.665007
51.745332,7.005535,3.518106,-19.196796
51.779516,-0.987344,9.513251,-19.122573
51.812504,-7.351808,19.591105,-17.018443
51.846706,-9.910104,28.504437,-12.792227
51.879326,-4.334707,29.829975,-5.614753
51.913762,1.197892,28.994219,2.395784
51.945885,5.988711,19.619687,14.207101
51.979386,14.111180,-3.126041,27.559442
52.012730,29.415613,-7.919703,16.659300
52.046483,51.746082,-25.038707,-18.346375
52.078698,55.347389,-33.115834,-27.497490
52.113454,40.084258,-25.960058,-27.217508
52.146223,16.946764,-6.711486,-21.432611
52.179885,0.811514,7.632838,-23.132854
52.213159,-8.731666,21.361980,-22.380449
52.245324,-7.879749,31.871853,-17.679117
52.279320,-4.546452,30.320953,-14.527038
52.312944,-0.269058,28.790704,2.054298
52.348311,7.359440,13.932955,20.167380
52.378899,14.581209,-0.025439,23.812832
52.412034,17.322967,-6.186688,18.867132
52.445525,35.708399,-9.087367,8.738699
52.479968,52.102681,-21.819139,-18.467286
52.513844,51.113541,-23.561581,-25.289957
52.546380,31.501037,-20.104231,-26.120176
52.578947,14.711099,-10.621656,-15.107653
52.613166,4.390225,-0.828124,-16.692970
52.646475,-5.612508,12.423806,-20.969167
52.679205,-8.171852,23.569512,-19.527058
52.712905,-4.058317,28.606494,-12.975091
52.746081,0.647655,24.962987,-5.101478
52.779131,3.944738,18.936267,2.146628
52.812277,11.639827,2.540339,14.071226
52.845607,15.304882,-4.122663,17.828910
52.880379,27.010103,-9.708236,12.294365
52.912801,41.092402,-21.906979,1.666573
52.946136,52.905665,-30.771977,-7.769911
52.979424,40.846539,-25.712250,-22.091489
53.012608,18.525198,-11.920108,-20.063677
53.046420,-0.561610,-0.068387,-20.465918
53.079449,-5.693615,6.321068,-23.122678
53.112551,-7.487684,12.829189,-23.592408
53.145511,-2.343109,21.626698,-17.103890
53.179571,0.247509,28.354196,-7.153831
53.212688,5.326391,23.310031,4.903201
53.245241,7.990634,10.641559,16.096643
53.279532,12.362902,-1.543717,22.081762
53.312604,30.167270,-16.589118,10.393750
53.345430,45.923026,-31.587082,2.700157
53.379460,46.043189,-38.551315,-13.384364
53.414168,33.848037,-29.993085,-21.221914
53.445321,17.955059,-15.400654,-16.830642
53.478717,4.122214,-1.064261,-18.679929
53.512239,-1.568557,6.680061,-24.028767
53.545996,-3.876052,22.568102,-25.381389
53.578893,-3.361130,30.243737,-19.827092
53.612636,-2.730086,31.843421,-7.682519
53.645870,4.866538,23.264540,12.273266
53.680051,12.385797,9.484220,23.089009
53.712721,17.659514,-0.143208,19.712316
53.746150,32.822235,-6.495851,13.183394
53.779479,47.982712,-19.364994,1.583222
53.812662,58.841253,-31.155961,-11.567101
53.845556,48.719703,-29.932779,-22.427886
53.879048,16.301654,-12.123174,-18.012970
53.912628,3.640813,-3.307708,-21.698078
53.945952,-3.132476,5.174952,-23.040225
53.979056,-8.921862,17.942788,-20.632171
54.012935,-6.986829,23.872090,-15.230659
54.046003,0.298538,25.576673,-7.809117
54.080000,5.905809,23.435881,-0.594232
54.111998,12.328185,14.287160,5.421863
54.145854,16.247633,-0.083052,15.750818
54.179645,22.483254,-5.789237,22.152693
54.212655,42.143494,-16.512201,6.734382
54.246321,56.675620,-26.332969,-13.143290
54.279585,55.186523,-30.943767,-23.342205
54.312889,24.625692,-19.564020,-13.745902
54.345923,9.424214,-6.166786,-15.447043
54.380567,-2.384411,7.404034,-21.641064
54.412857,-7.128990,14.330258,-24.845069
54.446054,-6.579052,21.209194,-23.740255
54.479857,-0.786374,25.927885,-10.277927
54.514374,3.837294,23.923268,4.874320
54.545576,6.654323,15.824891,11.302083
54.578837,11.619176,6.936699,14.418696
54.611930,21.806569,-2.298815,15.099572
54.646249,45.397929,-19.448046,9.405358
54.678657,64.743919,-34.743650,-2.798473
54.712296,58.255700,-31.840727,-20.604038
54.746500,21.772899,-12.241691,-24.794489
54.779614,8.281390,-2.957992,-21.444732
54.813406,-0.845632,7.543351,-20.609425
54.845737,-3.784620,15.723433,-19.520623
54.880310,-3.991576,25.861893,-18.545849
54.912291,-0.306469,25.884489,-10.830857
54.945595,3.810957,22.483703,-2.404463
54.979201,8.319250,15.188609,7.291502
55.012050,11.774506,3.079353,15.554636
55.046380,18.575628,-4.484799,17.549227
55.080434,33.187962,-12.111651,5.124672
55.113262,45.162690,-25.397251,-6.898839
55.145680,51.245975,-36.313106,-18.611842
55.180061,38.687490,-25.395156,-20.704748
55.212315,14.914763,-6.415492,-19.879317
55.245702,0.008679,11.175186,-24.277772
55.280055,-2.657808,20.374935,-25.669601
55.312561,-4.811619,32.761330,-25.161264
55.345645,1.039719,28.914160,-11.214691
55.380494,7.923145,23.362556,1.390482
55.412044,8.651308,14.436354,13.289491
55.445585,13.401424,-0.902946,22.496572
55.479538,24.472308,-6.928618,15.830578
55.512546,42.405070,-16.307789,-4.651801
55.545705,47.815111,-24.873351,-15.010385
55.579528,49.318425,-25.911873,-20.195214
55.611756,26.476925,-13.956449,-25.896909
55.645888,1.843152,1.944909,-21.199168
55.679261,-3.635276,9.282801,-20.663895
55.711946,-3.546239,12.989906,-17.313839
55.745550,-2.421971,17.621953,-13.250584
55.779558,-0.248856,20.026267,-10.111673
55.815759,1.896575,21.975366,-3.986338
55.845818,4.442600,18.978616,1.389584
55.879142,6.985033,13.564983,5.732372
55.912163,21.421238,-1.639787,18.104402
55.946251,33.342544,-7.002242,9.033196
55.979693,62.850337,-25.476263,-10.736732
56.013113,48.352180,-31.604740,-18.908883
56.045895,25.300582,-24.280616,-16.333827
56.078921,10.854351,-6.819977,-19.614599
56.112752,2.326349,8.794516,-27.610022
56.145927,-3.080849,21.328908,-27.349792
56.179228,-3.998759,28.711244,-21.256032
56.212844,-4.238936,33.419310,-9.490954
56.246244,1.633652,31.997253,4.491982
56.279724,10.182903,19.090849,12.619240
56.312778,23.970256,-0.014815,23.212315
56.346248,33.945006,-9.588821,14.213835
56.379913,44.496181,-20.546276,-0.319039
56.413390,55.479973,-42.641805,-11.751012
56.446111,41.032395,-28.617567,-22.309219
56.480053,8.230661,-3.661314,-31.471408
56.513476,-1.236500,7.814654,-27.881923
56.545669,-3.998759,15.454375,-23.586721
56.579575,-3.645302,21.205752,-18.943001
56.612479,0.580764,25.368071,-13.908264
56.645519,7.372160,28.507281,-3.436401
56.679757,6.985482,33.289570,8.980073
56.712009,8.590104,22.280638,16.403112
56.745503,15.666419,-1.461413,25.378845
56.779082,24.120348,-2.489161,16.309585
56.812457,51.971594,-11.065348,-11.338895
56.845825,71.883234,-25.970533,-16.706288
56.879329,57.134126,-21.424081,-28.142601
56.912772,18.680528,-6.037644,-23.770333
56.945487,5.758111,0.126299,-19.932740
56.980117,-1.529501,10.635573,-20.526523
57.013614,-3.350057,17.635721,-20.154660
57.046198,-2.285946,27.890452,-20.541487
57.079656,0.246312,36.611344,-9.087367
57.113112,1.662084,32.054118,3.428320
57.146275,9.230276,21.564297,8.503311
57.179470,20.900630,6.812346,17.425173
57.213061,30.030047,-5.306638,23.666182
57.246268,51.940917,-13.310890,-0.567895
57.279453,50.954022,-22.805884,-16.924468
57.313263,52.031002,-30.866851,-23.874934
57.345465,28.188840,-14.537363,-23.207227
57.379839,8.374319,-0.775300,-24.114961
57.413002,-5.724142,15.029689,-27.267638
57.445424,-8.981420,20.793037,-26.747031
57.479810,-7.212341,24.016047,-23.797269
57.513273,0.349117,29.761289,-10.784318
57.546057,4.342040,26.594245,-2.119992
57.579428,10.716231,20.217510,8.155690
57.613151,18.553331,8.453330,17.268347
57.646451,20.161245,3.989481,21.437998
57.678382,36.022499,5.308883,13.239660
57.712072,53.566040,2.211423,-0.103703
57.745461,63.076747,-17.433403,-16.408798
57.778735,41.984124,-16.473294,-27.477887
57.812217,14.659322,-10.321622,-21.575670
57.845538,1.036427,0.388174,-24.054954
57.878738,-3.019795,11.733354,-30.538833
57.912142,-3.049424,17.013056,-31.068719
57.945706,0.843687,19.033086,-20.453198
57.979068,4.483752,22.590548,-9.592562
58.012424,3.193979,27.912450,5.795821
58.045911,6.659710,22.541016,21.048927
58.077978,13.427312,16.179545,25.494818
58.112371,27.780614,11.216786,17.515258
58.145429,51.716752,13.395588,11.012224
58.179262,66.656805,-15.763837,-5.834130
58.212515,48.846301,-18.394111,-16.039629
58.245673,25.145552,-15.058869,-22.995781
58.279124,19.388937,-2.839774,-22.511387
58.312694,14.646453,11.584309,-20.092409
58.345695,5.802854,26.824396,-28.876300
58.379507,0.827825,38.218210,-28.909222
58.412651,5.873935,38.101638,-11.513977
58.446009,6.276025,35.278175,4.176834
58.478968,1.463358,31.336131,15.340347
58.512569,14.034413,15.911086,18.502303
58.545837,34.280954,2.558595,15.437166
58.579322,57.543250,-17.016049,9.884665
58.613023,61.687911,-30.495736,1.453332
58.646002,55.661639,-30.555743,-9.936591
58.679055,29.459608,-14.877951,-27.712976
58.713259,13.718218,0.533926,-25.700578
58.746353,9.010002,14.506687,-28.847718
58.780269,6.261510,23.498133,-34.000524
58.813250,3.439693,35.770650,-31.106429
58.845867,10.120951,37.328732,-11.102010
58.879513,12.475284,35.829011,6.421179
58.914177,13.417884,21.267854,23.031396
58.945934,17.300071,8.878615,31.063033
58.979665,19.869142,4.655542,31.924677
59.012826,45.180498,-5.231368,13.510065
59.046127,64.277033,-16.765248,-6.165289
59.079166,62.304140,-27.616307,-28.801928
59.113062,32.341133,-14.049378,-31.141595
59.146425,9.707188,-0.428278,-30.242989
59.179067,1.849587,14.020646,-35.450414
59.214063,-1.782098,26.749575,-34.741107
59.246452,1.125614,39.203609,-25.455911
59.279715,7.435459,44.868792,-3.440142
59.313370,11.834662,39.805622,14.996767
59.346015,21.335942,13.431053,32.366123
59.379772,21.223410,0.009577,31.068719
59.413162,32.985196,-6.448414,13.173368
59.448584,46.744117,-10.699022,-0.703471
59.479846,67.040040,-22.965404,-4.400550
59.513114,49.688043,-16.513548,-24.252782
59.545748,23.358516,-6.959744,-21.209942
59.579620,5.541428,-1.266129,-14.782628
59.613177,-0.003143,3.908524,-13.218111
59.646185,-3.801978,8.599531,-14.617422
59.679541,-5.185278,15.201778,-23.795324
59.712942,-4.756700,19.086359,-24.294233
59.746312,0.242122,14.450720,-12.010941
59.779076,5.187971,10.357088,-5.327139
59.812977,7.952924,15.489841,-3.978856
59.846431,12.420065,21.471818,3.037752
59.879461,21.111477,18.746520,9.896786
59.913231,28.406272,8.173797,13.368502
59.946298,28.827517,3.532322,14.687755
59.979304,28.184052,6.690387,12.717107
60.012747,29.557475,5.051497,9.872244
60.046381,26.968951,5.330731,7.626553
60.079216,22.920361,7.302725,3.355294
60.112293,22.063057,7.751954,-0.011074
60.145605,23.032444,9.654364,-2.564132
60.179121,24.281513,7.521653,-10.909420
60.212464,18.777496,5.177646,-9.554253
60.246244,11.268413,3.483538,-6.694726
60.278913,9.194661,2.077194,-7.934219
60.312950,7.704966,2.415985,-6.735429
60.345959,5.740902,4.048141,-6.111268
60.379449,5.317113,6.251633,-6.494205
60.413068,6.295179,8.283785,-8.513636
60.446660,8.226172,9.974451,-8.885948
60.479374,8.853176,10.325812,-8.530546
60.514035,11.471928,11.832717,-9.760910
60.544645,13.088969,13.630677,-9.796675
60.578763,14.952473,14.992876,-8.570201
60.612236,17.027422,14.092475,-7.792208
60.645771,17.570027,13.159152,-8.085208
60.678809,15.576035,11.922203,-6.833595
60.712140,14.636876,8.543415,-6.126682
60.856419,5.603530,0.375604,-3.393603
60.878459,3.927828,-1.096733,-2.633117
60.911617,3.649492,0.483945,-2.584334
60.944734,4.168903,-0.649001,-3.038051
60.978170,2.790242,-2.806553,-4.057718
61.012354,1.825794,-4.743382,-5.221042
