time_tick,acc_X_value,acc_Y_value,acc_Z_value
0.018375,0.155030,5.360809,-7.756144
0.051889,-1.251464,5.712919,-7.725766
0.085524,-0.754051,5.684636,-8.098227
0.118376,-0.871221,5.434284,-8.384644
0.151874,0.234490,5.162831,-8.526057
0.185612,-0.191543,4.960065,-8.783143
0.218443,-0.136774,5.218947,-8.343791
0.251791,-0.273697,5.256508,-7.908480
0.285690,-0.968639,5.318011,-8.257148
0.318377,-1.216896,5.781904,-8.809331
0.352089,-1.186669,5.575846,-8.455275
0.385442,-1.397067,6.361172,-8.751718
0.418326,-1.509448,5.605326,-8.579928
0.451734,-1.923660,5.269676,-7.355849
0.485698,-1.229167,5.314270,-8.884002
0.518504,-0.945893,5.973298,-9.407753
0.551926,-1.877720,5.730577,-8.110797
0.585603,-2.015242,5.283743,-8.617788
0.618508,-2.444567,4.307323,-8.115436
0.652022,-2.181645,3.434006,-8.670163
0.685713,-1.859014,1.312369,-7.433064
0.718502,-1.664329,0.282676,-7.245263
0.751858,-1.446299,0.470926,-6.540295
0.785592,-0.736393,0.095622,-7.176427
0.818373,-1.967805,1.205075,-7.446532
0.851878,-5.411837,4.826883,-5.310529
0.885615,-9.216060,7.042646,-3.561053
0.918667,-9.453544,8.637840,-4.194641
0.951821,-9.849199,10.218967,-7.335348
0.985641,-10.723862,13.167981,-8.736006
1.018370,-8.943860,14.750904,-10.482638
1.051647,-4.045597,12.059276,-13.065326
1.085703,-0.301830,10.374446,-13.705049
1.118376,-0.027385,7.553826,-14.467031
1.151819,4.512782,7.957413,-15.512287
1.185646,3.631086,1.929795,-13.391996
1.218451,11.238784,1.143721,-18.095124
1.251817,3.359335,-0.533926,-12.953991
1.285485,1.308478,-2.223993,-9.139443
1.318511,-0.534076,-2.715720,-5.216403
1.351823,-1.155692,-4.493329,-2.997498
1.385631,-1.883556,-4.157530,-3.044336
1.418382,-1.423853,-0.688507,-0.733400
1.451817,-5.483067,-2.574607,1.454230
1.485790,-3.189490,-1.172901,2.463273
1.518376,-0.557270,0.004040,2.734126
1.551820,-1.418615,-1.357411,-1.557035
1.585645,-8.624971,0.855359,5.118687
1.618375,-11.337399,-4.873871,-8.759649
1.651823,-18.601965,4.697591,2.893945
1.685685,-19.868094,-0.929881,-0.235837
1.718406,-11.966647,16.522078,-1.319103
1.751818,-9.496641,17.121697,7.235685
1.785946,1.239792,27.213468,8.803495
1.818461,-3.151630,22.491634,9.342508
1.851690,-8.215398,19.856721,5.946960
1.885717,-6.111268,6.395590,-1.098529
1.918378,-8.588158,5.287634,-3.417546
1.951826,-4.527298,6.554660,-8.692759
1.985663,3.385971,3.011864,-11.535825
2.018514,-0.629548,6.771792,-13.815635
2.051331,-5.402110,8.170355,-12.518381
2.085762,-6.104385,15.343191,-15.174543
2.118374,-8.811276,1.571550,-11.442149
2.151922,-7.996171,-3.448522,-5.448051
2.185607,-9.525073,-2.987322,-3.730000
2.218593,-5.704988,2.508764,-0.474518
2.252132,-1.314763,2.534952,1.095386
2.285793,-0.638975,3.001987,-2.104578
2.318521,-3.577813,2.309290,3.825472
2.352139,-6.396637,2.667834,-2.210825
2.385626,-7.831863,7.347618,0.429026
2.418510,-14.188695,11.220079,2.267989
2.452494,-2.396981,29.890730,9.946467
2.485417,2.333831,29.986052,9.377824
2.518501,-1.566013,29.839552,9.640896
2.551952,-10.550576,11.690855,11.709112
2.586461,-10.929173,2.963679,2.035294
2.618486,-9.237609,9.443368,-2.632519
2.652347,-1.970049,10.110626,-8.858563
2.685467,2.555004,14.572380,-17.205048
2.718403,-4.528644,15.047496,-19.412132
2.752315,4.533433,9.588671,-21.591233
2.785179,8.930242,1.001411,-16.104574
2.818847,4.757449,-3.795993,-10.866323
2.851996,-3.424579,-4.260933,-0.115674
2.886281,-5.045362,3.821731,2.649428
2.918492,-2.809247,3.679271,2.988070
2.951928,-3.863631,3.177069,0.436209
2.986066,-1.699944,4.566803,0.680277
3.018363,-1.247873,1.177391,-2.195861
3.052238,-10.544291,7.927185,-7.167748
3.085926,-22.113337,5.682990,1.965261
3.118495,-10.750948,18.138371,-3.176620
3.152333,-7.390416,24.645595,9.087966
3.185535,-0.228804,26.076032,6.108425
3.218360,-1.166916,22.337801,11.812066
3.252182,-4.999720,17.270741,8.032684
3.286177,-7.948435,8.311020,3.626746
3.318488,-11.106948,6.572767,-2.622044
3.351697,-2.805506,15.444200,-10.036253
3.384931,-1.584420,14.493069,-13.627834
3.418260,1.970798,16.551258,-19.102371
3.451664,4.173242,9.112058,-21.146494
3.485139,3.369211,-0.462397,-11.433020
3.518266,6.376885,-4.493927,-11.949588
3.551715,-2.558296,-3.304715,-3.389562
3.584975,-5.553399,2.222796,0.765424
3.618326,-4.447987,2.320064,0.820193
3.651763,-3.395997,3.016951,4.953630
3.685119,-4.233848,0.717837,1.953439
3.718491,-0.820043,-0.153683,-6.137157
3.751802,-11.370769,5.980031,-4.847683
3.785050,-21.982399,3.754542,2.557697
3.818306,-12.136342,15.420855,-4.151095
3.852023,-7.327417,21.803277,7.289258
3.885550,-2.805955,20.606732,1.125315
3.918443,-2.075099,23.142431,7.551582
3.952177,-7.295094,17.841629,1.680640
3.985448,-5.743596,11.354458,-2.410598
4.018041,-10.614623,5.188271,-5.015134
4.052215,-2.147376,4.383940,-13.413844
4.085462,-4.038863,8.647417,-12.592304
4.118776,0.349716,13.664646,-19.588711
4.152179,0.535871,5.707981,-15.641429
4.185133,-3.091923,-0.758390,-9.696414
4.218808,-5.616698,-1.785390,-9.556947
4.252180,-8.532940,-2.400572,-1.247723
4.285467,-8.359504,1.237248,3.949526
4.318660,-0.798046,-1.270768,-2.698661
4.352173,1.117683,-0.114178,3.147739
4.385169,-4.057569,-0.320834,2.354332
4.418655,-2.116999,0.334153,-4.114882
4.452178,-11.218582,3.845973,-6.595663
4.485144,-15.497472,7.936164,-0.876459
4.518733,-9.318416,19.509998,-1.836269
4.552572,-5.550706,28.114318,8.004102
4.585077,0.558767,28.854003,7.223864
4.618309,-7.791310,19.678048,13.596708
4.651893,-6.207638,14.417649,4.904997
4.685167,-6.053656,4.688762,-1.243234
4.718486,-10.163450,4.826135,0.074971
4.752177,-4.669309,14.260973,-4.088545
4.785122,0.005238,16.886009,-7.761082
4.818819,8.614047,19.885602,-18.365080
4.852474,12.459870,11.418954,-21.347614
4.885151,9.150068,3.659818,-17.116759
4.918354,1.158236,-1.545363,-11.225316
4.952228,-4.664670,-3.542049,-4.504851
4.985472,-5.189168,1.963764,-0.963850
5.018354,-2.366304,3.605946,3.774594
5.052195,-1.325687,4.260035,3.083842
5.085563,-1.258198,3.428320,0.454466
5.118321,-7.314847,3.828615,0.439950
5.151913,-12.678948,2.057142,-4.057718
5.185071,-16.998541,6.002179,-3.879643
5.218273,-20.167979,15.349775,-0.460302
5.252201,-7.576123,15.395715,-0.303626
5.285392,-0.798046,26.385643,5.223287
5.318488,-5.795671,14.822284,5.704090
5.352231,-2.704497,13.277519,6.836737
5.385194,-4.267518,11.414614,2.180298
5.418494,-9.937040,2.996301,-3.943391
5.452198,-6.958098,7.077363,-5.192461
5.485408,1.056778,6.235622,-12.651713
5.518486,-1.504211,6.501687,-16.074795
5.552195,-0.538116,8.770573,-17.727003
5.585300,-2.481679,0.006435,-13.386459
5.618492,-7.114325,-3.637970,-11.747271
5.652339,-8.708172,-1.725383,-4.330966
5.685361,-7.200819,-0.519111,1.329129
5.718490,-0.656035,-0.442494,-1.771772
5.752197,1.818910,3.046281,-0.941853
5.785493,-4.988797,-0.546496,1.380755
5.818552,-5.758859,1.259994,-5.968210
5.852253,-8.455275,4.573687,-6.581596
5.885159,-15.468442,8.942662,-1.358758
5.919034,-5.415578,22.606410,-0.557420
5.951784,-4.657786,26.706777,7.524047
5.985116,-2.728141,22.336903,7.193187
6.018316,-7.907732,19.239145,5.665931
6.051802,-10.695879,10.968978,0.612788
6.085160,-8.671210,1.912138,-4.405039
6.118286,-1.839561,1.985912,-13.342165
6.151805,0.900402,6.556007,-12.895481
6.185146,-0.279383,12.681940,-12.571654
6.218001,6.263904,7.087240,-17.030714
6.252200,2.503826,-0.832015,-14.015708
6.285191,-2.141540,-3.836247,-12.725786
6.318699,-6.861129,0.683868,-5.356469
6.352231,-6.116207,1.154495,1.122172
6.385152,-2.254221,1.766984,-1.352772
6.418445,0.693595,2.288340,1.611355
6.452233,-3.837444,0.013019,2.292829
6.485182,-3.094167,-0.900851,-2.965025
6.518262,-5.506262,4.874320,-5.426053
6.552317,-15.769972,9.692823,-1.966159
6.585167,-11.553184,20.009507,2.382914
6.618271,-6.227391,27.109616,5.575995
6.652076,-1.627068,26.357809,7.887979
6.685197,-3.944289,22.151645,7.656781
6.719055,-12.088606,13.009958,6.297873
6.751718,-8.180232,5.660095,-1.809632
6.785624,-7.980907,4.425391,-8.582771
6.818966,-1.551947,9.905465,-9.361812
6.851723,1.884454,11.970239,-9.580291
6.886018,8.305034,14.807469,-15.386138
6.918493,10.222708,-0.285070,-15.779101
6.951792,4.485248,-3.577215,-14.065389
6.985175,-3.173328,-1.679892,-8.775960
7.018624,-4.658385,-0.737440,-0.638975
7.051894,-1.023857,0.610992,-1.604322
7.085089,0.476912,2.426311,0.174633
7.118243,-3.671041,0.516867,-1.526358
7.152234,-5.111953,1.117534,-2.551412
7.184852,-6.561993,3.618217,-2.679656
7.218570,-10.758280,11.060709,-10.270444
7.252024,-11.951384,12.068704,1.207768
7.285585,-14.467480,18.356850,0.597524
7.318469,-3.256081,24.264005,4.358351
7.351939,-6.239363,21.448623,7.724868
7.385062,-2.334879,18.197031,2.500085
7.418561,-10.497153,10.802275,0.836953
7.451699,-6.657166,5.945314,-2.759117
7.485176,-6.620503,5.779211,-7.882742
7.518849,-1.116187,5.426801,-8.943560
7.551714,-0.170743,10.884878,-13.711035
7.585814,-0.729659,10.363822,-19.057029
7.618142,4.926994,1.149707,-15.994287
7.651893,1.678695,-4.436614,-12.765441
7.685727,-9.149319,-4.702380,-4.853070
7.718642,-7.682070,0.511480,2.249732
7.751850,-2.605134,1.169460,1.943563
7.785545,1.049596,0.096220,-0.727115
7.818442,-3.256081,3.745862,1.065009
7.851640,-6.499442,-0.938561,1.766385
7.885585,-5.775320,5.796868,-8.504807
7.918518,-16.637303,9.139144,3.349907
7.951693,-10.756485,13.996105,1.444503
7.985119,-1.144170,28.328457,4.438859
8.018582,-3.450168,26.240190,7.219374
8.051782,-2.809846,24.352594,8.530845
8.085510,-9.259307,13.618256,2.590918
8.118524,-8.517826,7.095171,-1.741245
8.151688,-7.874212,1.347086,-5.356469
8.185288,1.012484,3.244109,-8.884002
8.218645,3.471567,6.852450,-11.858306
8.251858,2.520137,13.131468,-13.498692
8.285484,7.951877,7.491575,-17.773542
8.317959,5.916284,0.288512,-13.519342
8.351661,1.941168,-3.910170,-14.571482
8.385329,-6.566931,-1.628863,-5.048055
8.418644,-10.291245,0.822887,1.246675
8.451820,-4.440206,-0.245863,1.185621
8.485288,1.868891,1.589657,-0.545598
8.518640,-0.772008,3.869617,1.023258
8.551822,-6.104834,-0.586750,-0.443093
8.585128,-6.408010,5.474238,-6.189831
8.618641,-12.193805,11.206162,-4.952583
8.651821,-12.263988,12.778311,-4.991041
8.685294,-5.596048,21.242714,-3.700820
8.718913,-9.210224,25.489581,-3.951621
8.751720,-12.851935,20.869654,-0.352708
8.785146,-4.757000,13.372692,-0.872418
8.818747,-3.721620,10.028621,-5.308733
8.851727,-6.161997,1.551348,-6.649534
8.885355,-2.373337,2.589571,-7.152185
8.918574,0.238980,7.233291,-8.814269
8.952166,2.013446,9.881971,-12.792377
8.985232,1.030890,7.774849,-16.161438
9.018866,-2.214865,-0.642118,-14.703766
9.051728,-4.532685,-6.510067,-12.811232
9.085214,-9.172514,-4.156034,-5.705886
9.118890,-8.689467,-2.324404,0.160866
9.151729,-2.708537,-1.162726,0.169845
9.185162,1.191158,1.146115,0.766471
9.218945,-3.207447,-0.559365,1.486553
9.251725,-2.325601,-0.986297,-2.388750
9.285420,-6.618708,6.015646,-6.409357
9.318863,-13.082235,8.558379,1.614049
9.351726,-11.553184,15.191453,-2.893496
9.385537,-6.212277,22.171698,0.778143
9.418328,-1.971845,25.274394,1.142225
9.451744,-5.270574,23.065814,7.916561
9.485149,-8.825193,15.851677,3.973918
9.517953,-9.272027,11.415662,2.125528
9.551697,-5.317113,6.226344,-3.229594
9.585130,-3.581854,3.301722,-11.185511
9.618639,-3.146991,3.837444,-7.510729
9.651826,1.415922,13.076998,-13.777327
9.685173,0.825131,11.790218,-17.696176
9.718864,-0.081555,1.046154,-16.259005
9.751740,1.544914,-3.158813,-16.968014
9.785309,-5.769933,-0.825430,-6.304906
9.818867,-6.875944,1.970349,0.445038
9.851879,-3.700520,2.113407,1.262238
9.885717,1.564816,1.469643,1.986510
9.918497,-2.082581,1.827889,1.728975
9.951688,-6.969171,-0.451473,0.758091
9.985531,-8.487898,2.921779,-6.917096
10.018526,-14.409868,9.611417,-0.148147
10.051694,-17.962092,10.442384,2.045769
10.085519,-4.742634,25.266314,0.064496
10.118522,-4.882550,22.691557,5.750330
10.151694,-0.341784,20.956298,4.735002
10.185314,-5.853733,15.800799,5.186176
10.218720,-7.806274,14.144102,3.752596
10.251830,-5.268479,6.352193,-1.933537
10.285382,-4.705373,5.725489,-7.241372
10.318665,-1.188464,4.080165,-10.609535
10.351822,-1.271067,6.861728,-13.565582
10.385328,-1.812475,11.327073,-20.427759
10.418591,-6.743959,-0.358545,-15.895373
10.451695,-7.426331,-5.481421,-11.478213
10.485991,-5.532000,-2.272179,-9.579244
10.517961,-6.779574,2.546175,-0.610543
10.551656,-5.234510,4.332463,1.271516
10.585273,-1.040168,2.876586,-0.275792
10.618390,-1.472636,2.896639,2.181196
10.651819,-3.257877,-0.415558,0.927936
10.685511,-2.935695,5.007203,-3.019495
10.718390,-12.232413,7.886932,0.227008
10.751825,-16.112804,8.642479,1.192355
10.785614,-11.368075,19.011837,-2.294026
10.818424,-10.019493,19.562523,1.679742
10.851695,-1.898520,22.874122,2.081384
10.885684,-7.910276,13.522335,2.422270
10.918488,-6.831649,10.835197,3.059749
10.951638,-7.326668,10.096709,0.618175
10.985489,-4.291760,3.257727,-4.159924
11.018470,-1.456924,2.659604,-8.799155
11.051639,-2.565628,5.092948,-9.890501
11.085361,-3.328358,9.318117,-13.338274
11.118345,-5.081874,6.932958,-13.259562
11.151696,-5.917780,-1.779404,-9.249879
11.185604,-5.262045,-7.465238,-11.919360
11.218361,-9.895738,-0.976869,-2.295224
11.251707,-8.732115,0.530335,2.413292
11.285401,-2.011351,-1.699046,-2.662597
11.318433,0.925991,-0.076767,-2.295822
11.352212,-3.211637,0.188101,0.072278
11.385141,-3.283765,4.122663,-4.253451
11.418381,-5.554597,7.948285,-5.085616
11.451856,-15.609405,10.357237,-3.048526
11.485230,-9.794879,20.258812,-3.896253
11.518734,-9.810292,24.472757,-0.097118
11.551668,-4.847534,21.464934,5.621487
11.585287,-2.731732,16.500380,3.155072
11.618495,-9.555899,10.554616,3.652036
11.652652,-5.081276,3.369959,-5.115694
11.685224,-6.577705,1.028646,-9.522379
11.718390,-3.265059,1.984864,-10.577063
11.751892,1.402154,12.443110,-15.229761
11.785450,-0.458506,13.413844,-18.953327
11.818631,-1.941318,4.465645,-14.606349
11.851875,-3.931868,-4.644318,-14.673688
11.885506,-7.852813,-2.149022,-5.888450
11.918387,-8.213901,1.726431,2.843815
11.952054,-1.266428,-2.411646,-1.513938
11.985345,0.993629,-1.109453,0.280281
12.018391,-5.046259,1.193851,-1.153747
12.052020,-6.183097,1.561075,-0.728911
12.085366,-6.155563,3.494312,-3.618366
12.118492,-9.136151,9.651820,-5.819165
12.151887,-9.104576,17.686150,-3.305912
12.184888,-8.671958,26.501317,1.572298
12.218411,-7.504444,22.315205,6.498095
12.252051,-2.454144,18.701029,6.520841
12.285403,-4.235644,15.300542,8.329575
12.318487,-6.595513,9.733825,4.262729
12.351875,-7.841290,6.028366,-3.275235
12.385309,-9.043073,4.378403,-5.158791
12.418491,-1.895527,6.856939,-8.864848
12.451702,0.122258,16.354927,-13.437937
12.485766,2.579096,20.342462,-20.662100
12.518361,2.307644,6.790647,-20.713277
12.551828,3.287656,-8.433128,-15.664175
12.585386,-7.369616,-5.599639,-1.995638
12.618490,-4.441253,-1.834772,1.676749
12.651830,2.320064,1.310423,-0.270106
12.684867,-0.492325,0.872568,4.161570
12.718512,-3.564794,0.621617,0.764227
12.751252,-4.440355,1.947154,-3.104343
12.785300,-7.708407,3.473512,-5.379514
12.818338,-11.841845,10.031016,-6.747101
12.851691,-16.123429,15.051537,-1.355915
12.886313,-7.216681,23.070004,0.640621
12.918388,-3.890118,20.848405,7.432915
12.951695,-2.284300,22.252954,8.076828
12.985547,-5.000768,19.437122,6.909613
13.018351,-11.756249,9.414487,4.187459
13.051689,-7.032620,4.981015,-4.694599
13.085697,-3.897451,2.582388,-9.865211
13.118393,2.276967,2.815382,-11.383938
13.151825,1.580978,12.496832,-15.988451
13.185213,-2.119992,12.875578,-18.401892
13.218391,-2.639702,2.931655,-14.426927
13.251819,-4.442450,-7.391164,-15.721638
13.285743,-11.053227,-3.307708,-1.106759
13.318390,-9.044869,3.738829,1.055132
13.351825,-1.115439,-2.436038,-1.665077
13.385654,-2.510560,1.762944,1.739001
13.418392,-8.880112,-1.217345,2.833489
13.451374,-3.745862,2.828551,-4.473576
13.485352,-5.967312,11.947343,-3.503890
13.518390,-15.423250,15.259690,4.737845
13.551696,-1.464406,25.087939,1.824596
13.585338,-0.847578,22.567653,5.894136
13.618340,-3.716682,18.153485,4.197634
13.651830,-7.257384,12.349284,0.537069
13.685458,-9.387102,6.942385,-0.650199
13.718392,-3.909422,3.223159,-6.147632
13.751826,2.809696,-0.941853,-13.389901
13.785644,-1.542071,8.419810,-10.627792
13.817962,-0.285968,17.856294,-21.647049
13.851666,-8.030589,1.773568,-12.431887
13.885480,-7.232244,-4.094830,-8.820853
13.918395,-8.137434,1.280495,-11.713152
13.952157,-9.337870,4.649406,3.242164
13.985285,-3.940248,1.679443,-0.377699
14.018491,-1.261789,-1.928449,0.856407
14.052193,-2.944973,-0.623263,-0.404186
14.085437,-5.227627,-0.026038,-0.063898
14.118494,-5.875431,2.401919,-3.279126
14.152181,-8.093139,9.686238,-4.127901
14.185373,-13.487917,18.925044,1.239941
14.218390,-5.056585,33.087253,6.043330
14.251795,-1.933985,24.171376,8.519921
14.285460,-6.992965,17.864525,6.649085
14.318489,-5.693166,10.914807,4.034523
14.352402,-9.306295,0.330412,-1.442857
14.385314,-2.542883,5.577492,-10.243808
14.418331,4.369574,4.634891,-11.477165
14.452175,3.233634,8.798856,-15.471734
14.485114,3.186198,11.043649,-17.629884
14.517968,-1.646821,0.010475,-14.343127
14.552115,-4.177283,-4.374512,-15.612997
14.584969,-7.636429,0.312155,-5.266384
14.618368,-8.446895,2.956795,1.967206
14.652488,0.822288,2.028859,-3.352601
14.685350,0.168947,6.311491,0.106097
14.718360,-5.832932,1.893432,0.767818
14.752465,-7.709455,2.976398,0.032622
14.785120,-6.920687,7.014663,-3.755439
14.818374,-7.599617,15.099722,1.143571
14.854556,-8.340499,26.723836,6.297723
14.885443,2.842468,27.339467,7.242270
14.918353,-8.105560,18.873717,7.343728
14.951896,-3.487728,20.424167,6.231731
14.985012,-7.346122,11.606606,-0.989290
15.018322,-10.188290,6.495701,-1.137735
15.051974,0.205460,4.469236,-12.461516
15.085353,4.839004,4.403094,-13.998948
15.118492,-0.702723,12.469148,-12.847595
15.152190,3.609388,6.467269,-17.530073
15.185156,-3.987536,-3.143100,-11.421648
15.218590,-7.043394,-5.780408,-9.880924
15.252202,-6.481635,-0.153384,-1.854226
15.285245,-5.226430,4.424942,-1.851383
15.318521,-3.393453,2.980738,-4.021505
15.352187,-6.134762,2.730236,-1.878318
15.385098,-7.188249,4.450232,-2.334580
15.418008,-5.017678,3.269399,-1.720595
15.452191,-5.946511,6.287697,-2.479883
15.484824,-5.330282,14.592282,0.590192
15.518496,-8.333915,24.366361,9.489308
15.552088,5.108212,26.778156,10.069175
15.585656,-2.648381,24.051213,7.454912
15.618552,-7.235685,18.499909,4.762087
15.652391,-9.692823,10.896999,1.183077
15.685034,-10.737181,1.581427,-3.455405
15.718514,0.241673,3.564046,-11.782437
15.752292,-1.263286,10.803473,-11.512630
15.785141,-2.470006,16.230873,-13.274377
15.818728,7.271151,5.234510,-19.929148
15.852198,-1.036577,1.176194,-16.224737
15.885083,-7.588095,-0.227757,-10.459892
15.918377,-6.472057,2.761062,-4.212898
15.952228,-5.021119,1.503163,-0.208602
15.985117,-2.256167,0.158771,0.976570
16.018392,-1.637393,1.258348,1.748578
16.052203,-3.865726,5.170313,-1.339454
16.085671,-6.627387,4.833018,-4.386334
16.118405,-9.705243,20.190724,3.073516
16.152234,-14.983000,12.997388,7.433663
16.185052,-0.622964,24.989474,2.581640
16.218708,-0.230151,20.931158,7.360039
16.252204,-3.232138,17.860185,4.726024
16.285296,-4.919512,16.385903,7.611738
16.318485,-6.943433,7.681472,-0.070482
16.352203,-7.476012,3.240219,-2.366005
16.385117,-3.090725,5.084718,-6.223201
16.418657,3.602355,7.922846,-14.115221
16.452199,-5.504017,16.860121,-17.671785
16.485322,-4.274850,4.991340,-15.891782
16.518360,-2.601992,-2.615459,-16.908007
16.552205,-7.143954,2.787848,-7.763476
16.585071,-7.564152,4.931184,-0.774402
16.618476,-3.684060,2.722155,-1.586963
16.651919,-2.118944,2.121638,-1.233507
16.685137,-2.918337,2.609025,0.750759
16.718505,-4.711209,1.807388,2.733228
16.752350,-5.537537,0.036363,-0.179572
16.785138,-9.874938,4.991640,-4.323634
16.818491,-14.409269,11.644616,3.000191
16.852207,-13.647287,13.276322,-3.022788
16.884796,-4.607506,24.169730,3.735836
16.918371,-4.465645,17.918246,4.959915
16.952189,0.631793,15.609405,6.489566
16.985120,-2.032002,12.865552,1.898370
17.018491,-4.751762,7.638973,0.676536
17.052208,-5.584974,6.121294,-4.639680
17.085210,-1.442857,4.653447,-7.337443
17.118012,1.693958,1.795416,-14.321578
17.152295,-0.666360,11.796503,-16.946166
17.184777,-4.480160,11.061756,-15.050339
17.218448,-5.235258,-1.740198,-14.170588
17.252197,-8.306530,-1.805891,-12.841161
17.285209,-11.721233,3.535913,-2.223096
17.318492,-7.679526,2.708986,0.387575
17.352200,-2.734126,0.274744,-0.199175
17.385118,-0.543204,1.456924,1.571999
17.418488,-3.017400,2.398028,1.262837
17.451931,-4.942856,2.800867,0.309911
17.485234,-7.296740,9.459380,-1.732865
17.518530,-12.388491,8.639336,-1.694108
17.553154,-12.574497,18.916066,-2.148723
17.585552,-7.897107,23.407748,3.170036
17.618360,1.051242,19.537383,4.801743
17.652872,-1.180683,14.163106,4.357303
17.685258,-4.635490,10.002883,4.237739
17.718672,-8.316107,7.360488,1.145666
17.752934,-4.093483,4.419854,-2.762708
17.785198,-0.475865,2.477189,-7.813158
17.818662,-0.369917,4.787228,-9.838874
17.852547,-3.957008,15.713108,-14.471670
17.885260,-4.888087,11.199577,-16.276514
17.918730,-5.370685,-1.442109,-13.412198
17.952358,-9.401168,-4.327375,-9.464019
17.985194,-9.429301,1.731369,-2.181196
18.018665,-5.867350,3.279575,0.195134
18.052477,-2.186583,0.806276,-0.762730
18.085254,0.406580,0.129292,-0.566399
18.118689,-2.034994,2.255718,-0.213092
18.152313,-5.259800,0.630446,1.164970
18.185136,-8.413675,4.717644,-1.784941
18.218587,-11.496020,11.355805,2.327097
18.252510,-11.107098,16.345050,-0.398350
18.284748,-7.203512,22.322837,-1.159583
18.318648,-4.562015,25.103652,5.932445
18.351696,-9.024218,14.552178,5.406450
18.385060,-4.603765,8.613897,3.549381
18.418933,-5.051198,9.239105,0.750609
18.451712,-5.553998,4.809824,-1.799905
18.485278,-5.925861,4.861750,-4.977124
18.518855,-2.437085,5.413783,-5.349586
18.551745,0.774402,5.104770,-11.854265
18.585235,-4.195539,14.823331,-17.161203
18.618972,-9.509510,4.418208,-13.580846
18.651817,-9.681899,-0.352259,-13.011754
18.685355,-11.171445,5.539333,-6.524732
18.719002,-7.111631,4.566055,-0.255141
18.751917,-3.019046,2.506819,0.307516
18.785043,-1.127560,1.444803,3.806468
18.818584,-2.477638,0.730557,3.417845
18.851717,-3.278677,1.217944,2.826755
18.884642,-8.008292,2.193616,1.031788
18.918578,-11.269610,5.660244,-1.941019
18.951796,-17.315634,10.916154,0.205310
18.984733,-11.759691,17.586039,-2.403864
19.018794,-3.159860,28.034409,4.299092
19.051658,-1.104814,20.289638,3.607293
19.085285,-1.488947,13.941784,3.816643
19.118869,-6.121145,6.558401,1.905254
19.151707,-4.499763,4.346978,0.366775
19.185381,-5.878873,1.697101,-1.303390
19.219041,-0.872718,3.932766,-5.300802
19.251725,-0.961456,7.833808,-8.083862
19.285650,-4.772413,15.372670,-16.816126
19.318862,-5.476034,5.028302,-14.206204
19.351343,-4.217836,0.698982,-15.731664
19.385271,-9.606628,2.292979,-7.553228
19.418865,-12.335966,5.904761,3.241416
19.451709,-4.858458,4.034523,-2.002672
19.485653,-0.556522,0.902197,1.100474
19.518519,-4.679485,-0.052974,2.926118
19.551691,-4.423894,0.333255,1.230364
19.585381,-4.694748,2.790392,-0.626256
19.618524,-11.320938,5.737460,-3.200114
19.651691,-11.455617,9.364356,-0.378148
19.685576,-9.787696,19.282691,-3.523792
19.718501,-6.015048,27.680354,4.675145
19.751695,-1.282739,21.024385,4.147654
19.785978,-5.559684,11.162616,5.391785
19.818525,-5.105069,8.357409,4.969942
19.851323,-5.213111,5.179891,-1.022361
19.885563,-9.962778,3.163602,-1.431634
19.918640,-1.952840,4.409678,-5.757213
19.951823,2.312133,11.696691,-12.640040
19.985349,-4.640577,10.972868,-16.209324
20.018640,0.449677,1.956133,-16.055341
20.051821,-3.464085,-6.619456,-13.705648
20.085372,-8.172301,-2.902924,-5.778911
20.118637,-6.818032,0.678930,-0.109239
20.151819,-3.170635,2.061930,-1.031339
20.185265,0.514173,2.019731,-0.599619
20.218641,-0.888580,3.720124,1.328081
20.251995,-4.143015,2.329342,0.682970
20.285203,-5.755567,2.328744,-2.439330
20.318870,-7.933470,9.087816,-2.676214
20.351335,-14.832759,10.699171,1.641284
20.388065,-7.397300,27.051704,0.274744
20.421887,-3.437149,24.959695,1.572149
20.451646,-8.997282,18.424638,1.757257
20.485365,-4.169202,13.749493,3.598165
20.518391,-4.531488,7.874062,-0.548741
20.552182,-6.843471,3.643806,-1.336312
20.585110,-7.030375,1.283787,-3.736285
20.618492,-2.642096,1.610308,-7.514470
20.652477,-0.223716,7.325172,-8.632153
20.685165,-6.100494,13.147031,-14.433062
20.718491,-5.519281,6.193422,-12.141280
20.752185,-9.798770,-0.720232,-11.316449
20.785171,-11.828826,0.548890,-7.165503
20.818491,-9.331285,4.591644,-0.863141
20.852252,-5.121679,4.211401,0.543802
20.885260,1.962867,0.937663,0.251101
20.918495,-1.427594,1.878019,0.717388
20.952186,-6.982041,0.009876,1.869639
20.985154,-8.634697,3.354845,-0.790115
21.018484,-9.206932,10.900292,-3.342126
21.051265,-8.908993,11.121464,-0.514772
21.085090,-4.069839,29.998922,-2.963080
21.118359,-6.307001,24.360974,8.184122
21.151801,-4.081661,16.850245,6.504829
21.185024,0.057164,12.405400,5.038328
21.218432,-8.050940,7.464190,1.296656
21.251912,-9.748639,1.587562,-0.752405
21.285372,-4.993136,5.752574,-4.755952
21.318334,1.439266,7.611888,-9.364955
21.351892,0.382936,10.801826,-14.376048
21.385422,0.168947,7.836651,-17.513762
21.418350,-2.212022,-0.918957,-15.503758
21.452409,-5.746140,-2.552310,-13.141344
21.484987,-8.209113,0.874513,-4.058466
21.518380,-7.211593,2.661998,0.776797
21.552177,-3.092521,2.258860,0.212643
21.585083,2.191222,1.210163,2.826755
21.618492,-0.339241,1.033434,3.157017
21.652178,-2.784706,-1.038522,-0.401193
21.685372,-6.103337,4.415365,-0.006884
21.718490,-11.772710,9.738913,-2.762110
21.752601,-10.085486,12.931844,-0.679229
21.785313,-10.928424,30.759407,0.908333
21.818365,-1.983817,28.155021,0.825430
21.851941,-4.674397,24.008864,5.337914
21.885301,-2.352537,13.708341,6.314633
21.918492,-9.017484,8.873228,2.410898
21.952179,-7.618023,4.996578,2.079438
21.985262,-5.433685,2.172516,-7.132731
22.018300,-0.655436,4.811021,-7.146648
22.051712,0.641519,9.080484,-10.070072
22.085102,-0.085745,17.536956,-17.346161
22.118308,-3.114219,3.901341,-13.647137
22.151753,-3.567338,-4.342040,-12.280748
22.185071,-7.454763,0.063598,-6.708793
22.218382,-9.242846,1.424601,-0.518962
22.251783,-5.196501,0.270255,-1.902261
22.285353,-1.862456,3.096561,0.984501
22.318363,-3.038051,1.392128,3.616571
22.351994,-3.004082,-0.729958,1.860960
22.385281,-2.023771,3.264611,-2.019880
22.418901,-8.189958,7.781733,-2.493351
22.451768,-11.781988,12.765591,0.653790
22.485146,-8.347832,26.755710,1.682286
22.518771,-7.709904,31.272084,7.844134
22.551810,0.682821,22.568102,11.050533
22.585159,-1.070995,15.877416,5.701546
22.618874,-7.045639,13.407858,8.224077
22.653571,-6.805312,4.659133,1.917076
22.685170,-9.188975,5.760505,-3.392855
22.719634,-4.892726,9.179547,-4.695047
22.751717,0.673543,8.895824,-8.941765
22.785346,-0.141862,14.511625,-11.281881
22.819861,-2.237761,15.734956,-15.371024
22.851726,-7.578966,5.960877,-15.884300
22.885411,-9.122982,-5.740752,-7.610242
22.919467,-6.547328,2.935695,-3.324468
22.951713,-4.822094,6.883576,-2.020479
22.985232,-2.924472,5.565221,0.915665
23.019110,-0.595878,3.030868,4.824788
23.051748,-2.031553,-0.343879,3.490721
23.085703,-1.617191,0.218329,1.237846
23.118793,-5.106266,1.778207,1.073090
23.151727,-12.853282,4.336802,-5.374426
23.185537,-14.911920,12.548609,2.268437
23.218341,-13.968271,18.185060,-1.592051
23.251723,-7.980009,23.090056,0.896361
23.285461,-2.717965,24.423076,4.935823
23.318497,-2.487664,12.938279,7.824530
23.352042,0.688507,8.115736,9.758815
23.385562,-6.179057,4.059664,4.560967
23.418403,-14.040848,-0.049083,5.093846
23.451970,-10.002883,4.513830,1.117384
23.485709,-5.054639,6.909913,-4.378253
23.518382,-3.652335,9.196756,-5.939927
23.551776,-3.481892,21.580458,-9.528365
23.585307,9.258559,20.514252,-17.639611
23.618377,7.204260,9.602438,-16.075992
23.651938,-5.142330,-0.890226,-3.349159
23.685715,-7.596475,0.680576,-2.296271
23.718007,0.663816,1.769229,-1.449292
23.751754,3.765017,-8.794366,2.695518
23.785660,-2.787100,-3.794646,-4.041407
23.818385,-8.076679,6.296826,-2.459681
23.852090,-13.114409,8.488347,-0.947689
23.885710,-11.852470,9.880325,-2.304801
23.918516,-9.163386,12.562675,-3.230193
23.952384,-14.630591,27.135204,1.092244
23.985361,-4.572191,19.790878,8.830879
24.018480,0.367373,17.159557,8.140277
24.052098,-1.234554,10.061393,13.405015
24.085429,-0.246612,13.040485,12.238848
24.118482,-7.942898,8.528750,6.973810
24.152016,-10.067678,7.116270,2.515498
24.185365,-7.571484,11.266917,-2.378425
24.218534,-6.182049,11.130742,-3.147590
24.251897,0.040853,11.641922,-13.167532
24.285429,-6.534159,19.588561,-19.789232
24.318356,-7.537515,9.133008,-22.520815
24.351697,3.142203,-7.136771,-19.982272
24.385361,-3.140407,-7.772604,-10.040742
24.418483,-0.696289,-3.584398,-4.585958
24.451662,-2.387104,5.415429,-2.228333
24.485691,-5.044464,5.699002,0.413015
24.518501,-3.387168,3.108533,-1.625871
24.551693,-0.006884,6.880882,-2.341613
24.585586,-5.155948,7.487534,-2.635811
24.618368,-6.014449,4.146756,-5.694662
24.651696,-12.068105,9.961881,-5.849393
24.685434,-23.267084,14.544995,2.949762
24.718466,-9.064771,19.759902,8.144766
24.751825,-5.736413,11.387230,8.629609
24.785615,-1.916627,14.022442,11.656288
24.818306,-2.358074,21.394003,10.375494
24.851657,-7.516266,20.379723,6.374191
24.885306,-7.713944,18.855311,1.480867
24.918405,-6.577556,10.754240,-2.466116
24.951911,-4.888835,5.263242,-9.317668
24.985601,-3.549830,0.991534,-11.848878
25.018513,-0.474218,6.097651,-14.968485
25.051815,0.274445,20.567376,-17.347658
25.085724,1.895677,10.267302,-19.142625
25.118549,2.134357,8.140127,-21.194679
25.151820,-7.867029,4.275149,-7.074819
25.185608,-5.513744,4.439607,-3.424130
25.218425,-2.537346,3.494612,-2.072106
25.251832,-3.371456,3.705608,1.885800
25.285762,-4.091837,3.445230,2.242848
25.318602,-2.274573,2.312881,1.955384
25.351826,-4.127152,3.188293,0.992582
25.385622,-6.213026,2.139296,-3.068578
25.418618,-10.748703,6.736776,-4.806831
25.451970,-20.424467,10.970474,-1.325088
25.486185,-14.029326,17.510469,-1.766385
25.518415,-11.440652,18.333206,5.739106
25.551619,1.769528,14.477805,3.906728
25.585606,0.706614,13.105430,4.095727
25.618373,-6.683952,10.981248,6.697120
25.652084,-4.767026,10.228844,-0.079311
25.685940,-5.677603,6.521440,-2.722454
25.718381,-8.465451,4.275000,-2.621445
25.752026,-4.452177,4.371070,-3.907776
25.785798,-1.186818,5.529606,-8.534287
25.818380,-3.001987,17.276577,-16.944221
25.852245,-11.936120,6.501088,-16.862815
25.886030,-8.890138,3.478899,-14.574924
25.917959,-10.847916,2.111761,-6.833595
25.951818,-4.213197,5.027704,-2.303454
25.985203,-3.639167,3.624502,-0.037710
26.018402,-1.858865,0.834858,1.764739
26.051768,-1.580828,0.531083,0.433965
26.085165,-3.054512,0.859998,2.114156
26.118374,-2.047116,-0.154282,1.747381
26.152333,-5.041172,-2.750587,-3.917802
26.185118,-9.862667,1.949249,-6.745605
26.218044,-16.573256,13.311788,0.261426
26.252976,-9.279509,21.701220,-4.311213
26.285551,-5.176748,27.545525,4.941809
26.318403,-3.117661,22.599676,6.315232
26.352171,-5.575247,20.042129,7.026036
26.385293,-6.915300,17.271190,9.018382
26.418848,-5.326241,15.043605,3.717580
26.451848,-7.423188,14.002240,-0.218179
26.485581,-9.811489,5.081126,-2.758368
26.518319,-8.336908,0.186754,-7.525993
26.551898,-5.356020,6.841376,-6.006219
26.585497,-0.360340,12.892937,-7.616377
26.618324,1.912886,17.202654,-13.187883
26.651897,-2.272029,9.725295,-13.099145
26.685521,-2.075398,2.704198,-14.622211
26.718376,-4.265572,-3.639316,-8.690963
26.752192,-6.268992,-1.117384,-2.896639
26.785022,-3.405574,-0.613686,-1.875325
26.818359,-3.343023,-1.746333,1.614348
26.852188,-3.125143,-3.512719,1.587113
26.885311,-5.027853,0.810466,-0.936466
26.918495,-9.298064,2.616806,-1.216597
26.952203,-11.622917,4.489288,-5.685384
26.985067,-13.552563,14.059104,-3.665055
27.018358,-16.124476,17.300371,1.185771
27.051960,-2.897836,22.732410,3.421586
27.084770,-0.682821,19.410785,3.507930
27.118437,-3.863033,16.818072,3.130231
27.151906,-8.205671,11.232798,4.279938
27.185452,-6.767602,7.594230,-1.505857
27.218896,-9.038284,4.381695,-3.159262
27.251966,-7.547990,3.851510,-6.358179
27.285514,-2.160695,1.431784,-7.739084
27.318813,0.890525,8.826689,-12.441913
27.351970,-2.172217,13.103784,-15.648163
27.385232,-3.246055,5.592456,-16.328589
27.418776,-11.872671,1.513339,-8.738400
27.451953,-12.347488,2.278763,1.814720
27.485171,-8.530247,2.514002,-0.011672
27.518415,-3.476355,1.497926,-0.628351
27.552638,-1.353221,2.366603,-0.594980
27.585252,-2.777074,1.534289,0.289858
27.618420,-3.398691,-0.758839,0.014216
27.651897,-2.796976,3.069775,-4.821047
27.685369,-7.409571,8.402451,-4.009234
27.718395,-12.350781,15.303086,4.083606
27.751981,-10.111075,22.144163,3.840437
27.785107,-5.404056,23.772428,8.697098
27.819317,-3.894757,19.428593,5.299306
27.851904,-8.770872,17.127084,4.462802
27.885200,-9.799368,11.477015,2.370943
27.918493,-9.183887,2.531510,-2.487814
27.952202,-8.246075,0.032622,-8.384644
27.985110,-3.424579,3.930821,-9.260205
28.018470,-3.525588,9.554403,-12.351828
28.052195,-5.853733,12.387593,-13.758472
28.085184,-2.306447,5.540829,-15.023104
28.118359,-5.688677,-3.216126,-14.977613
28.152212,-8.761894,-1.864401,-3.107485
28.184793,-6.294880,1.522168,1.004104
28.218374,-2.908161,0.793108,-1.077579
28.252212,-0.230450,0.397302,1.897473
28.285320,1.407691,0.776198,2.829449
28.318492,-1.870836,0.228654,1.473534
28.352198,-4.602418,1.455128,1.323742
28.385224,-6.786308,6.320020,-3.646948
28.418493,-14.044290,13.595361,3.980802
28.452210,-13.827756,17.394646,-1.911240
28.485232,-10.042538,31.149825,3.863332
28.518424,-1.595792,23.272022,3.245456
28.552177,-2.032151,23.542726,7.119263
28.585121,-7.690001,13.974257,3.876501
28.618487,-7.801186,6.626788,0.605306
28.652264,-7.628348,2.167728,-2.767796
28.685225,-6.028965,0.630296,-8.314012
28.718496,0.781884,4.298943,-8.238742
28.751910,0.000748,13.756526,-12.903113
28.785129,-3.640813,15.315956,-14.563850
28.818486,-1.774765,4.502457,-15.628410
28.851909,-6.066226,-3.465581,-14.683116
28.885210,-11.827928,-3.808862,-2.827803
28.918491,-7.039504,-0.106396,0.254692
28.952303,-4.230705,-0.344029,-2.352686
28.985217,-0.796250,0.151139,-2.869852
29.018492,-2.054747,2.824062,0.019454
29.052203,-5.326092,-0.046689,0.717837
29.085209,-3.765765,0.359143,-0.713198
29.118490,-8.826240,8.151351,-2.258561
29.152204,-11.744427,10.544441,-0.854611
29.185053,-5.557140,20.881027,-3.286009
29.218437,-4.694898,22.569748,2.475244
29.251910,-3.711893,21.934813,0.666659
29.284666,-5.394179,21.975665,0.385480
29.318327,-9.361064,14.717234,1.709072
29.351911,-8.812024,11.288914,-0.873466
29.385228,-4.757149,6.339175,-3.813800
29.418671,-5.416775,2.324703,-6.957499
29.451981,-1.913933,3.433707,-8.901511
29.485413,-1.555838,7.364678,-10.291544
29.518821,-0.620569,17.057201,-20.098544
29.551700,1.237098,4.085252,-16.626229
29.585254,-7.200968,-4.628456,-13.938792
29.618755,-10.832204,1.339753,-0.090684
29.651461,-7.966093,2.032451,2.099640
29.685773,-2.440676,-1.239193,-1.562721
29.718503,2.950211,2.174911,0.019304
29.751944,-2.487365,0.644213,0.603061
29.785682,-5.089357,-0.575377,-1.147163
29.818462,-5.213710,4.994333,-4.013573
29.851829,-11.029433,10.999654,-4.331864
29.885771,-10.686601,14.061050,1.210761
29.919005,-8.565712,29.911231,-0.980012
29.951692,-4.185962,23.958135,5.252617
29.985684,-7.908630,17.052263,5.147268
30.018330,-4.769121,15.443900,2.511458
30.051696,-7.265614,9.683994,-0.977917
30.085373,-9.109065,7.389219,-1.008593
30.118366,-2.736670,4.493927,-6.679762
30.151860,0.189598,-0.405233,-9.501729
30.185615,0.849972,1.223032,-8.156887
30.218383,-2.434242,10.328805,-10.036852
30.252012,-6.896445,12.672064,-11.489286
30.285864,-10.567935,3.265957,-6.146434
30.318029,-12.882462,-3.140108,-2.979990
30.351956,-13.937744,0.829471,5.772626
30.385274,-9.529113,6.037644,3.640514
30.418592,0.562209,3.882337,-2.525823
30.452487,-5.205629,4.929089,1.062166
30.485204,-7.411067,1.016674,0.527042
30.518847,-2.221450,-0.990337,-0.468831
30.551769,-5.940077,-0.627902,-1.004703
30.585166,-4.060561,3.198768,-1.457971
30.618846,-12.577190,14.890820,6.485525
30.651876,-4.029885,28.998708,8.929344
30.685171,5.850141,34.651021,12.257703
30.718671,-1.526957,22.394217,8.221683
30.751739,-7.435459,18.408327,7.836502
30.785235,-9.413738,12.352876,5.140535
30.818374,-7.009425,4.062357,-2.522531
30.851758,-6.551368,1.511693,-7.713645
30.886058,1.462461,6.424920,-7.077962
30.918324,0.762132,13.647437,-14.106242
30.951902,1.208816,15.419509,-14.407324
30.985516,6.845716,0.531382,-16.783055
31.018383,1.883705,-8.890886,-18.383636
31.051812,-6.332590,-4.393667,-5.697356
31.085586,0.476912,-0.591239,-9.789492
31.118326,-0.015413,5.654408,-7.209498
31.151900,-2.492303,9.590168,1.644127
31.185526,0.765723,7.530183,3.257128
31.218376,-6.018190,4.542412,1.689319
31.252203,-7.210545,4.832270,4.408930
31.285166,-12.027402,10.904033,-2.114904
31.318359,-11.650901,18.154233,5.945314
31.351971,-5.617746,30.744443,1.499123
31.385123,0.814806,31.384765,8.192053
31.417985,-8.168111,18.010427,0.155180
31.451830,-7.519857,15.554187,0.246013
31.485423,-6.838084,6.006818,-0.511180
31.518576,-4.256444,4.611098,-2.061481
31.551864,-2.208131,7.149940,-2.494548
31.585378,-2.995104,2.517144,-2.175659
31.618582,-2.764055,0.811813,-2.750138
31.651825,-2.966073,-0.747167,-2.088267
31.685440,-2.166381,5.486210,-3.275235
31.718584,-6.580249,21.717382,-5.019773
31.751722,-10.286905,21.004034,-1.657146
31.785240,-2.771387,19.632107,7.940354
31.818478,-2.663495,19.116886,13.254774
31.851777,-2.197656,19.571801,11.184763
31.885399,-2.241951,17.688245,3.584098
31.918477,-3.577963,16.714968,7.803880
31.951693,-5.391037,12.259349,7.232393
31.985234,-4.420303,9.376926,5.738208
32.018484,-6.650133,9.872693,4.808926
32.051692,-10.748853,8.806188,1.720894
32.085360,-12.939177,9.116099,0.441746
32.118596,-7.559213,7.058359,1.534888
32.151823,-6.855742,4.596582,3.157915
32.185328,-5.810486,3.076060,0.669353
32.218661,-3.649193,3.052716,-1.201633
32.251827,-2.159946,2.425413,-1.926653
32.285361,0.116422,1.137735,-4.305677
32.318585,0.424836,-0.254243,-2.480781
32.351826,-0.366775,0.027534,-3.874406
32.384808,-3.394800,0.157873,-4.063405
32.418593,-3.727606,2.192568,-4.231903
32.451825,-2.256316,8.918869,-4.178330
32.485496,3.421736,18.500507,-3.113022
32.518778,5.198596,22.307124,-6.378680
32.551737,6.192075,14.232690,-4.560518
32.585281,6.607035,11.387529,-6.091665
32.618582,4.868783,12.888148,-5.985269
32.651729,2.735623,16.631018,-3.662361
32.685175,-0.930181,20.359372,2.805955
32.719285,-53.571427,15.642028,19.310225
32.751294,-2.167279,9.084973,19.202931
32.785096,-4.295650,12.053141,11.339344
32.819065,-15.260139,8.591899,8.958375
32.851731,-4.897514,10.203105,3.456902
32.885336,5.034288,13.742310,-2.466415
32.918855,1.920817,15.154491,-0.099961
32.951664,2.415387,16.418674,-4.485697
32.985091,0.016311,13.962884,-5.343450
33.018560,-7.670997,8.188462,-2.376779
33.051722,-11.738741,3.188442,2.491405
33.085820,-7.378145,1.121275,-0.196780
33.118518,-4.271558,0.617128,-3.325665
33.151690,-5.218947,0.491278,-3.387168
33.185663,-9.881073,-0.937812,-0.921501
33.218642,-8.013829,-1.416071,-1.587861
33.251823,-4.729765,0.111035,-4.865640
33.285820,-6.773139,-0.006584,-4.988198
33.318645,-11.492279,-0.916264,-2.076745
33.351824,-10.351700,-0.736543,-2.184188
33.386511,-7.763925,-0.499209,-1.612852
33.418392,-6.097202,-0.143208,-0.967142
33.451823,-5.863310,-0.490829,-2.697015
33.486279,-4.875367,0.857753,-2.271879
33.518393,-5.103573,1.863504,-3.067231
33.552195,-3.083692,4.559321,-3.152678
33.585532,-1.876223,8.901361,-4.792166
33.617949,-1.109453,9.320960,-6.121294
33.651814,-1.472038,11.148848,-4.471780
33.685674,-3.528132,15.059318,-3.686454
33.718596,-5.222389,17.154618,-3.947282
33.751919,-8.161526,20.704448,-2.939885
33.785162,-4.578027,20.609425,-6.508570
33.818384,-1.154196,21.139760,-9.172364
33.851894,2.415088,17.145939,-11.759092
33.885603,5.027255,11.842294,-12.599637
33.918494,5.951001,9.508014,-13.828954
33.952251,8.211657,9.146327,-16.589118
33.985977,7.139016,5.123774,-12.812878
34.018384,6.908716,1.734212,-10.569281
34.052204,8.614795,2.465218,-9.952004
34.085799,0.499059,-0.159669,-5.780108
34.118706,1.918423,-0.975373,-4.320342
34.151907,-0.004190,-0.012570,-4.267368
34.185242,-4.804736,-2.467612,-2.509063
34.218863,-7.508784,-4.097374,-1.784342
34.251908,-9.579992,-2.019132,1.866796
34.285761,-8.183225,-2.596604,2.318568
34.318547,-4.031381,-3.458697,0.084698
34.351692,-3.933814,-2.164885,-1.757407
34.385509,-6.320320,0.539014,1.147013
34.418568,-9.673668,0.194386,-2.212770
34.451697,-12.625525,3.289002,-7.367670
34.485572,-17.251886,11.399351,-1.397815
34.518531,-17.019341,12.075887,-1.900316
34.551700,-12.573749,19.268325,4.336204
34.585085,-4.304030,15.924404,5.956089
34.618528,1.184574,18.214689,7.972378
34.651693,0.112831,15.051088,6.999399
34.685285,-2.020629,13.226940,3.062443
34.717979,-7.570586,8.716851,0.279533
34.751710,-8.901211,4.888835,-2.752682
34.785584,-3.247402,0.172239,-8.987106
34.818567,-1.365342,-0.695690,-10.876349
34.851930,-1.783894,7.651543,-9.556648
34.885886,-5.916732,16.883914,-15.765184
34.918588,-11.411322,7.077363,-11.445740
34.952126,-12.434730,0.168947,-9.305247
34.985558,-14.864632,5.322949,-3.853156
35.018395,-12.478127,5.297211,-1.238295
35.052148,-8.239191,1.740647,3.441937
35.085656,-3.898199,-1.267775,2.754029
35.118391,-0.041002,-0.089636,3.739278
35.152029,-3.284064,1.531446,2.455042
35.185623,-3.343472,4.837657,-1.154795
35.218460,-6.785410,11.141965,-2.918037
35.251960,-13.881927,10.140704,2.128521
35.285784,-10.835047,19.084264,-0.314549
35.318311,-8.127108,19.377265,5.591109
35.352462,5.192311,22.380150,7.587197
35.385189,0.078712,20.396334,2.798922
35.418360,-3.659369,18.216036,4.030633
35.452007,-7.566546,15.705027,0.170743
35.485357,-7.972228,7.776495,-3.414104
35.518488,-5.216553,2.249283,-11.236090
35.551928,-6.289194,3.026529,-10.939199
35.585545,-0.133482,8.112443,-10.983792
35.618494,2.735323,10.860935,-17.699169
35.651468,-3.432510,8.551047,-14.926884
35.685384,-4.728119,-3.522745,-12.143226
35.718496,-6.706249,-6.693529,-6.882229
35.751721,-11.858006,0.317393,3.845076
35.785625,-5.399267,-1.788981,2.239407
35.817945,-1.339155,-2.234468,-1.547907
35.851711,0.362735,-1.404998,-2.399824
35.885528,-3.716383,-2.220252,-1.832528
35.918409,-5.882764,4.589400,-3.660117
35.951291,-10.691689,14.664111,-1.587861
35.985346,-10.272988,16.953049,0.514173
36.018392,-5.092200,19.136340,2.503975
36.051661,-8.871283,18.704171,7.327865
36.085714,1.868741,17.159557,4.150796
36.118385,-2.320812,21.263814,4.208409
36.151692,-3.026678,16.807746,5.759607
36.185580,-4.918015,13.763410,4.308071
36.218461,-4.042903,10.456301,2.167279
36.251823,-5.799412,5.014834,-4.066248
36.285643,-4.143464,2.487814,-8.964810
36.318533,-2.445315,2.342810,-11.139870
36.351691,-5.625527,12.569559,-14.409718
36.385958,-3.060647,14.239873,-20.521286
36.418394,-0.299585,2.524477,-17.366064
36.451820,-3.494013,-5.475286,-13.298320
36.487759,-8.120075,-0.096819,-2.570417
36.518397,-9.658255,3.587690,1.104365
36.551874,-3.975115,1.071443,0.031874
36.585636,-0.649301,0.922549,-0.623861
36.618393,-3.172879,1.991598,-0.747317
36.651830,-5.681344,0.170144,1.744238
36.686519,-5.030846,0.990487,-1.570503
36.718339,-11.021802,5.274166,-3.891016
36.751691,-13.494651,11.765078,3.436999
36.785345,-8.495080,23.692968,-1.024306
36.818587,-2.181196,23.751628,3.404227
36.851694,-2.567723,19.301995,7.257533
36.885714,-5.036832,18.790515,4.071036
36.917946,-6.991169,12.309928,1.379409
36.951659,-7.887380,8.523513,-3.159112
36.985682,-8.412328,0.746269,-5.094744
37.018412,-4.009982,0.602463,-7.454014
37.051859,2.368549,6.787654,-14.531527
37.086040,-8.241436,9.772133,-12.687627
37.118394,-7.449675,12.950699,-16.279507
37.151992,-4.130145,-2.914446,-12.941272
37.185944,-9.933748,-7.217279,-8.587261
37.218461,-14.047582,-0.119864,-0.170743
37.252052,-7.745669,0.175830,0.554876
37.285756,-3.037453,-0.585254,0.244217
37.318391,0.301082,-0.816003,-1.179037
37.352087,0.087840,3.000341,-0.193339
37.385852,-6.748298,1.278549,2.578348
37.418395,-5.648572,-1.251913,-1.332421
37.452036,-7.753450,10.025329,-6.680959
37.486049,-17.399135,11.888982,4.032728
37.518342,-11.077169,16.883166,-1.463358
37.551783,-1.354568,25.773903,6.247892
37.584991,0.229403,22.347378,3.687651
37.618386,-1.867394,20.787500,-0.140814
37.651553,-6.634869,13.633221,-0.647954
37.685541,-7.715291,12.493091,-3.133673
37.718390,-6.203748,7.747614,-4.541215
37.752359,-0.529437,-6.241757,-13.253277
37.785061,-0.617876,0.863440,-11.566652
37.818360,-2.862819,4.726323,-10.314888
37.852299,-3.887275,13.380174,-17.695727
37.885125,-6.653574,4.045597,-11.655091
37.918361,-10.596217,-3.881588,-8.573344
37.952254,-14.386074,2.597053,-1.630958
37.985023,-13.385711,3.443583,3.935161
38.018360,-6.559299,2.372589,2.662597
38.052529,0.846979,-0.886036,0.635085
38.084930,1.088204,1.359207,0.214738
38.117970,-3.781777,-0.348369,3.232288
38.151924,-3.727007,2.001025,-0.299286
38.185316,-7.596175,4.470134,-2.327546
38.218363,-13.463974,12.022314,-2.608725
38.252220,-8.708172,18.438555,-2.225939
38.285242,-10.750050,27.581290,-0.253944
38.318366,-1.227222,24.932909,6.198360
38.352209,-5.250971,14.253640,4.425989
38.385180,-5.244387,13.995057,5.957435
38.418355,-6.391849,11.687862,1.654602
38.452203,-5.987813,5.066012,-2.394736
38.485317,-3.172879,2.582388,-6.752937
38.518485,1.958826,3.857496,-9.430050
38.552200,0.043097,10.756185,-11.094378
38.585102,-3.138312,16.124626,-18.238183
38.618749,-1.895826,6.403820,-15.470237
38.652211,-7.266213,-6.392447,-12.519428
38.685239,-10.073215,-3.840886,-2.531061
38.718643,-7.975071,2.323057,2.946919
38.752199,-0.690453,0.469729,1.609410
38.785109,1.624973,-0.598273,1.928149
38.818896,-0.517316,-0.949335,1.978280
38.851682,-5.860467,0.709756,3.009619
38.885159,-6.240261,-1.377912,0.099662
38.918525,-9.495294,7.742526,-8.630058
38.951975,-15.276600,12.810783,-1.831929
38.985835,-11.892574,24.873351,-3.378489
39.018464,-3.586343,30.006404,2.305699
39.051907,-1.706678,21.676679,7.512675
39.085308,0.907285,17.313390,6.485376
39.117982,-6.146734,12.561179,3.118260
39.151825,-9.714820,9.295670,0.664265
39.185090,-9.953052,2.718264,-4.340693
39.218415,-5.581083,2.671127,-6.663151
39.251916,-0.335799,6.332291,-9.325000
39.285026,0.636132,13.008461,-12.382505
39.318271,-3.202958,10.208642,-16.295219
39.351742,-4.163665,0.130938,-13.858433
39.384963,-9.643740,-4.516224,-8.256101
39.418271,-10.021289,1.542519,0.607850
39.451716,-6.358329,3.037752,-0.145453
39.485073,-3.475009,1.264932,-0.585104
39.518359,-2.421373,1.671512,-1.499422
39.551752,-2.973854,2.379173,-0.272350
39.584962,-4.232501,1.483411,1.360853
39.617965,-5.476483,1.834174,0.374706
39.651788,-6.008913,6.785859,-2.239407
39.685073,-9.338019,13.864718,2.595108
39.718314,-11.066395,19.334168,1.498674
39.752296,-5.061673,28.430963,2.323506
39.785068,-5.231068,22.450033,5.797467
39.818363,-1.104515,17.246799,1.697699
39.852254,-6.626788,15.084009,3.799434
39.885051,-7.932722,9.947365,1.810231
39.918362,-4.604962,7.769611,-3.933066
39.951911,-8.384644,2.452798,-4.152292
39.985050,-1.073688,0.977318,-9.034693
40.018403,-4.044998,3.268501,-8.921862
40.051806,-3.080999,15.014874,-17.437444
40.085111,-9.873292,7.768115,-15.707122
40.117970,-12.770230,1.252063,-13.781816
40.151915,-10.898496,5.122577,-5.628071
40.185065,-6.248790,5.041172,-3.391807
40.218444,-2.112659,5.086513,-0.033969
40.251924,-1.598187,3.215528,3.355893
40.285289,-1.692312,0.435311,3.957906
40.318321,-4.848431,-0.638826,2.574308
40.351925,-4.409678,-0.253196,2.397879
40.385124,-8.418463,0.771409,-0.216084
40.418506,-11.328570,8.050791,-2.256915
40.451925,-10.930519,22.609403,0.187353
40.485069,-5.799113,26.788631,3.188442
40.518317,-1.831630,22.149999,5.107014
40.551809,-0.500705,17.844472,4.228910
40.585047,-1.364145,14.905036,2.849501
40.618559,-5.224185,15.339150,3.228397
40.651965,-6.777030,6.657315,-0.506092
40.685436,-4.348325,3.721321,-3.044935
40.718336,-2.945721,0.581213,-2.735473
40.751903,-1.237846,7.541705,-6.621700
40.784721,-0.938261,23.343851,-18.497814
40.818393,-10.344368,8.849734,-17.419337
40.852201,-10.583048,4.009084,-16.992705
40.885089,-7.131833,3.307857,-14.411963
40.918360,-7.003140,6.394243,-5.678202
40.952209,-4.605711,5.688078,-1.939822
40.985176,-4.400700,3.323719,2.019581
41.018661,-4.528046,-2.268886,6.358329
41.051925,-0.024990,-3.102098,4.107100
41.084620,-2.214566,-1.985612,3.680917
41.118861,-8.706825,-1.182778,-4.993884
41.151970,-10.901040,11.139870,-4.925348
41.185141,-18.049633,15.888340,0.648702
41.219538,-7.143805,28.376343,-4.508892
41.251727,0.851917,26.954735,2.895741
41.285079,-2.905168,19.055383,6.194619
41.319125,-0.947988,15.191303,3.737033
41.351241,-5.157295,10.724162,2.610072
41.385299,-8.709818,6.995060,-0.523900
41.418737,-8.884751,2.959189,-0.699132
41.451741,-5.314270,5.582131,-5.423360
41.485404,-0.548591,4.720038,-10.869166
41.518383,-1.983966,6.810101,-15.027444
41.551826,-5.902965,15.671807,-18.175183
41.585307,-2.430052,9.732179,-23.662291
41.618427,-7.241372,-6.041984,-9.145578
41.651834,-8.630507,-3.137414,-1.991897
41.685376,-6.591622,-1.942515,-0.818547
41.718408,-3.840437,-0.718585,0.979862
41.751871,-2.788297,0.902048,-1.435525
41.785348,-2.596754,-0.468831,-2.871349
41.818391,0.245714,2.930009,-1.234105
41.851973,-2.903223,3.115417,-1.440313
41.885784,-11.188803,3.965987,-3.482191
41.918389,-12.732520,8.992344,2.105925
41.952308,-18.014317,12.249622,2.498439
41.985987,-9.460427,20.270484,4.058167
42.018640,0.222220,20.216612,6.532513
42.051900,5.370536,23.318411,5.672814
42.085407,0.658878,18.993431,3.037153
42.118393,-6.277522,19.160881,1.925306
42.153200,-9.696713,18.034968,-2.150070
42.185136,-7.613534,10.384772,-3.239171
42.218572,-6.116955,2.828551,-11.787076
42.253464,-4.541963,-16.572358,-11.622917
42.285128,-4.914873,1.291568,-12.427398
42.318492,-8.567807,12.431887,-14.607546
42.352907,-9.756570,11.125654,-11.046193
42.385107,-8.650559,1.997584,-11.777648
42.418570,-14.211591,4.433023,-1.269571
42.452843,-10.483835,4.361793,0.197229
42.485051,-7.294495,2.737718,-3.093419
42.518457,-7.673840,2.379173,-0.740733
42.551890,-7.111482,1.632904,1.606716
42.585135,-3.372653,-1.000962,2.120141
42.618862,-1.067852,1.620035,-0.262474
42.651937,-5.121979,1.240091,0.288811
42.685670,-6.764160,9.168773,-2.452798
42.718570,-15.207764,16.780511,6.771343
42.752324,-13.635016,19.226874,5.404205
42.785189,-3.525887,24.972415,9.716017
42.819084,0.175980,21.569534,3.554319
42.851720,-0.563705,19.257850,-1.007247
42.885541,-7.714692,13.194617,0.037261
42.918561,-5.532150,8.870834,-5.467355
42.951692,-6.706997,6.434946,-6.456794
42.984719,-7.408972,0.859250,-9.965472
43.018641,0.810167,1.474282,-14.892167
43.051977,-2.129269,8.145365,-12.280149
43.085243,-1.618089,17.048671,-18.822090
43.118856,-4.048141,10.718026,-16.895587
43.151710,-3.220017,0.394758,-16.420021
43.185322,-9.923273,-2.863268,-8.107954
43.218858,-13.261957,-1.077878,1.797661
43.251707,-4.242228,-2.616956,0.973727
43.285449,0.120313,-0.128394,2.562785
43.318862,0.444290,4.057419,2.742506
43.351707,1.121275,2.766748,1.239792
43.385180,-4.402047,4.757598,0.200372
43.418863,-11.932379,8.384943,-1.723438
43.451701,-16.945867,11.583561,0.433815
43.484748,-15.090294,18.770613,-3.568086
43.518969,-7.812858,22.982463,1.403352
43.551267,-1.778955,20.738417,2.951109
43.585058,-2.955299,20.973955,7.089784
43.618572,-4.683076,17.255627,7.517912
43.651769,-6.414445,15.611051,3.791952
43.685348,-5.590361,10.992771,0.140365
43.718635,-0.140664,11.154535,-7.862989
43.751904,3.858843,5.865255,-9.390843
43.785233,7.579116,8.371176,-11.307769
43.818640,5.384153,11.361641,-13.249985
43.851929,-0.584805,12.722494,-16.428252
43.885161,-1.628115,0.518064,-15.617037
43.918870,-5.469001,-11.809223,-11.686815
43.951784,-12.239596,-8.119028,-3.782076
43.984806,-12.240943,-1.708922,0.664115
44.018870,-6.863673,-1.814271,1.519325
44.051707,-1.628115,-0.645560,0.475865
44.085168,1.261490,-0.887383,-0.876309
44.118867,0.840395,3.038051,-2.232373
44.151798,-2.921779,2.591217,-2.927914
44.185114,-7.125847,7.271600,-6.550919
44.218946,-11.875814,14.049677,-1.444503
44.251859,-13.075801,19.758555,4.476419
44.285146,-6.409956,23.729181,4.965752
44.318989,-2.927166,22.412024,8.728374
44.351778,-4.475821,20.434343,3.412757
44.385090,-4.152143,18.682772,-1.499871
44.418875,-10.312494,15.602073,-4.983409
44.451707,-8.572147,12.681641,-7.307514
44.485307,-5.573452,3.567338,-16.347594
44.518876,-1.785989,-2.752383,-16.000871
44.551827,-5.168069,3.069775,-13.152418
44.585097,-3.803475,10.454655,-16.478532
44.618583,-0.507739,11.858306,-20.294128
44.651630,2.226238,2.259309,-13.928317
44.685188,-0.824832,-6.815937,-8.518724
44.718864,-6.173370,-1.563470,-3.946683
44.751956,-9.492900,1.151203,2.509213
44.785363,-4.451878,0.201419,2.272927
44.818868,-1.068900,0.362286,2.981336
44.851993,-0.793108,0.156676,0.041002
44.885612,-1.422207,3.149685,-3.847171
44.918522,-5.769633,5.788189,-1.027897
44.951391,-16.307340,7.822435,-1.452285
44.985523,-12.399265,12.479174,-1.526508
45.018641,-12.108209,19.872134,-3.554170
45.052062,-7.395354,24.694079,5.247829
45.085479,-4.532386,21.351505,8.414722
45.118714,2.651823,21.256332,3.544892
45.151725,-0.228804,18.733950,1.759352
45.185953,-9.051303,15.253554,-1.118581
45.218471,-12.099231,8.199985,-2.831245
45.251743,-7.560261,4.414766,-10.011263
45.286044,1.311620,4.503355,-12.702442
45.318390,4.473726,9.827202,-15.545807
45.351905,0.158622,13.103485,-18.013719
45.385799,-3.179464,7.560710,-14.929278
45.418395,-0.545748,-5.052245,-14.925238
45.451924,-7.108339,-13.564235,-8.323290
45.485971,-13.478939,1.908696,3.505685
45.518394,-5.672964,0.707512,-0.831566
45.551905,-0.303626,-0.202617,-2.362712
45.585733,-1.037475,0.637030,0.476014
45.618395,-3.961348,0.241374,1.407542
45.651692,-4.885244,-2.073004,2.320962
45.685747,-4.899909,-0.958762,-5.990058
45.717957,-7.853262,10.739126,-2.768245
45.751659,-15.159579,17.804518,3.130530
45.785557,-2.665141,30.498130,5.514043
45.818910,-1.778057,24.902681,6.766854
45.851747,-1.461712,21.079454,4.396659
45.885683,-6.928020,15.257146,4.928939
45.918560,-7.391763,10.892360,1.584569
45.951821,-5.504167,8.594144,-2.308542
45.985377,-8.969748,1.598636,-3.166145
46.018620,0.382188,3.799734,-8.074733
46.051821,4.917716,9.237010,-15.315507
46.085359,-12.234209,14.781281,-11.904845
46.118384,-0.396404,4.972635,-16.680849
46.151694,-0.837552,-4.869980,-17.821427
46.185602,-17.093415,1.850934,1.545662
46.218553,-8.319549,1.267625,-0.009428
46.251346,-2.716169,-0.580016,-4.419256
46.285673,-3.004531,3.135020,-1.181880
46.318337,-1.821005,4.234746,-0.255441
46.351695,-3.555367,2.101436,0.806875
46.385608,-3.628991,1.803048,-1.235003
46.418339,-6.009212,4.631599,-2.383812
46.451713,-11.753107,10.670440,-1.182030
46.485913,-8.367734,24.246497,-0.568494
46.518512,-9.724248,24.754684,4.747422
46.551728,-4.728867,17.473208,3.260271
46.585534,-4.240432,15.676146,1.490294
46.618343,-8.230362,12.598140,2.502629
46.651881,-9.488710,7.210545,0.212942
46.685701,-6.362968,2.901128,-4.769570
46.718341,-6.442727,2.352088,-5.965815
46.751326,-3.467826,2.203492,-6.563190
46.785590,-2.596455,4.829726,-8.078774
46.817954,-5.725489,6.056349,-9.023769
46.851821,-5.648123,1.907499,-8.515432
46.885703,-16.099037,-0.530035,-5.557889
46.918471,-16.583880,7.354053,-0.372312
46.951973,-9.876584,4.258240,1.113194
46.985611,-4.094979,2.400273,-1.032686
47.018517,-0.908782,3.008721,-2.217708
47.051958,-0.451323,4.877163,-2.502030
47.085701,-2.852494,2.699858,0.439202
47.118803,-4.127601,1.005900,0.315298
47.151932,-6.514706,6.948521,-0.917311
47.185787,-11.988046,15.697695,1.559280
47.218718,-8.411280,19.017823,2.061631
47.252290,-5.630765,19.421410,0.205759
47.286078,-7.434561,22.678089,4.468937
47.318391,-6.225147,19.241988,-0.502800
47.351873,-6.759222,14.315144,-2.100089
47.385645,-6.788552,7.216681,-3.697827
47.418339,-3.601158,-2.192568,-9.383211
47.451695,-3.649642,2.866560,-10.929921
47.485757,-4.426588,3.985890,-13.231878
47.518339,-3.485184,5.160138,-11.033773
47.551694,3.526935,1.077429,-14.835751
47.585684,-3.066334,-3.867223,-9.478534
47.618391,-10.976759,-2.897536,-9.894092
47.651825,-10.841482,0.640322,-2.185236
47.685490,-2.195861,1.226623,-2.792936
47.718335,3.615523,6.168133,2.206036
47.751693,6.751291,8.765186,-1.496130
47.785668,1.662383,17.820081,8.388984
47.818389,-9.825406,9.273822,5.616399
47.851828,-10.575117,3.164350,1.646970
47.885976,-22.031781,6.654023,2.782311
47.918368,-13.460233,11.280235,-5.823206
47.951744,-6.393794,37.588961,-2.681751
47.985650,-5.690323,24.869311,1.763243
48.018352,7.409720,29.912278,-1.133695
48.051694,-6.506026,17.909268,6.892255
48.085759,-1.200136,12.105366,4.184316
48.118335,-4.357004,9.202742,-0.515670
48.151694,0.427680,6.988326,-4.209157
48.185574,1.964064,4.652250,-7.682968
48.218388,7.531081,2.615609,-12.221639
48.251824,-1.608811,8.374169,-13.245795
48.285695,-4.287270,18.326472,-11.660178
48.318467,7.213089,6.027319,-13.191924
48.351828,0.654089,-4.860253,-13.696220
48.385649,-8.678692,-5.882315,-5.111055
48.418392,-11.862645,0.042050,4.452476
48.451827,-3.900144,-0.986746,0.242571
48.485760,0.867630,2.515797,-2.579246
48.518391,-3.635575,2.574158,0.717239
48.551828,-3.055559,3.176471,1.660438
48.585653,-3.211188,5.087711,1.542669
48.618390,-7.602460,5.481720,-2.877335
48.651826,-10.644552,19.892486,5.463464
48.685736,-18.309563,18.804881,2.627581
48.718768,-7.156824,27.878182,2.253174
48.751695,-6.753835,19.309627,-0.883791
48.785667,-7.863737,19.560279,-2.514899
48.818355,-10.749601,12.818265,-2.876886
48.851762,-9.904118,0.953525,-3.027426
48.885798,-2.546175,-3.485783,-12.029497
48.918640,-5.467205,2.742506,-8.196243
48.952158,-3.068129,5.206826,-7.265015
48.985649,-3.462439,6.672729,-8.424599
49.017962,-7.753899,10.515410,-8.544463
49.051785,-0.808072,3.962246,-12.789683
49.085933,-1.078028,-4.103808,-11.060409
49.118382,-7.142458,-6.310144,-10.462137
49.151702,-9.222944,-1.056330,0.785925
49.185756,-7.463442,0.814357,-0.642118
49.218406,-2.113707,-0.087092,-1.631407
49.251949,12.839514,5.434882,-2.806254
49.285187,19.983020,20.770441,-0.361687
49.318554,3.338085,10.075460,11.434666
49.352325,-5.556692,14.073620,9.407902
49.385091,-6.379279,18.122509,6.662403
49.418574,-7.544100,25.051726,3.918999
49.452275,-7.893217,32.081203,-1.185322
49.485246,-9.379770,27.236662,-2.906066
49.518575,-5.159988,19.752270,-3.756786
49.551695,-1.094788,12.886652,-4.776304
49.585436,-1.481914,7.085145,-3.148039
49.618859,-2.780366,2.035892,-0.419449
49.651712,-4.051433,0.235837,1.674056
49.685641,-4.021355,1.431484,1.911838
49.718521,-3.718328,2.288340,1.094937
49.751689,-3.163751,6.018190,-0.110436
49.785526,-1.321198,12.284040,-2.329192
49.818642,1.034931,16.402363,-3.444032
49.852127,-5.460321,21.676679,5.102824
49.886085,-3.270147,14.003288,8.571997
49.918394,-1.246675,12.177644,7.959209
49.951823,-0.506092,13.663449,4.559770
49.985881,-2.468660,11.210052,3.214330
50.018390,-1.423404,8.247571,1.213455
50.051823,-4.111440,6.579351,-0.125550
50.086054,-2.995553,5.332975,-0.753003
50.117963,-2.870750,3.865577,-1.180832
50.151657,0.244816,5.783999,-6.278270
50.185603,1.724934,8.192652,-12.241092
50.218522,-1.319252,6.464875,-8.442107
50.251823,1.683782,6.538349,-13.735726
50.285856,0.202916,4.168005,-12.115542
50.318421,-4.781840,2.160994,-7.371561
50.351690,-9.651521,-2.455491,-9.420622
50.385637,-9.878978,-5.157594,-6.424321
50.418472,-6.513359,-4.353862,-5.438025
50.451692,-5.280600,-2.653618,-2.964127
50.485905,-2.799520,-1.524413,-5.619392
50.517971,-4.392469,-1.133545,-6.255075
50.551694,-4.357004,0.116721,-3.502393
50.585597,-3.596369,1.390931,-3.189789
50.618458,-2.879879,2.591068,-4.264974
50.651692,-1.700243,3.641711,-2.968018
50.685907,-3.074115,5.147867,-2.067467
50.718447,-2.852943,7.095769,-3.660416
50.751692,-2.992709,10.514662,-4.867137
50.785596,-3.711893,13.353239,-6.230384
50.818398,-5.350783,15.785685,-8.584866
50.851691,-6.031658,16.047710,-10.142200
50.885707,-6.216916,14.997066,-8.317454
50.918414,-7.058807,15.592645,-9.276666
50.951690,-3.475009,15.989499,-12.354073
50.985597,-0.820941,16.647179,-12.729677
51.018338,3.876650,14.132878,-13.369550
51.051698,6.658662,9.405059,-13.869806
51.085759,8.177239,7.700626,-14.111928
51.118339,9.713324,5.066910,-14.766616
51.151691,7.812709,5.841911,-12.724888
51.185572,5.825450,2.755525,-10.697525
51.217969,4.041557,0.388024,-8.519921
51.251672,2.831693,-1.907798,-6.188634
51.285362,2.094403,-5.162831,-6.234724
51.318441,-0.865684,-4.286971,-4.885094
51.351826,-2.101286,-2.830945,-2.968018
51.385711,-5.066461,-2.708986,-1.506306
51.418822,-2.947966,-1.999379,0.319039
51.451825,-3.350356,-0.370815,-0.625508
51.485674,-4.546901,2.523130,-0.811663
51.518786,-6.434198,2.999892,3.319978
51.551826,-8.450786,2.456688,1.605818
51.585609,-8.548952,3.499700,-1.996686
51.618794,-11.791415,0.491727,1.432233
51.651822,-13.713729,2.768993,-3.319230
51.685706,-13.247890,6.118152,-3.101350
51.718390,-17.489070,17.158060,0.566548
51.752294,-13.404267,21.376794,1.578733
51.785462,-8.969898,23.364202,10.975861
51.818840,1.659989,20.027613,9.146177
51.851696,4.475072,18.639226,2.064324
51.885709,-4.847085,14.373654,0.525396
51.918392,-8.147011,12.136193,-0.017808
51.951824,-11.378101,7.181664,-2.395484
51.985597,-9.799817,3.152079,-4.440355
52.018269,1.791675,6.887766,-12.546514
52.051590,4.653896,8.435074,-13.570520
52.085070,3.673435,10.035655,-13.799025
52.118273,6.572169,7.188548,-18.370916
52.151617,3.254285,-1.503612,-10.817689
52.185091,-0.165655,-9.137049,-5.676556
52.218347,-6.521739,-8.258944,-4.597031
52.251645,-9.994203,-0.517166,3.184402
52.285203,-6.645344,-0.980311,3.571827
52.318349,1.943263,-2.285197,-1.341250
52.351645,2.650775,4.223074,-2.219803
52.385260,-5.901918,4.831971,0.546795
52.418464,-6.531915,5.912692,-2.107871
52.451696,-9.587175,9.818972,-2.325002
52.485425,-16.798019,14.281773,-0.655885
52.518390,-10.434453,21.131529,3.869767
52.551770,-5.694662,22.865442,2.260506
52.585638,-0.750609,20.746648,10.273587
52.618839,-2.993458,24.715029,9.837228
52.651693,-3.360382,24.387610,4.487193
52.685743,-0.611441,16.618897,-5.021419
52.718940,-1.385843,4.455469,-15.596087
52.751824,-1.586365,-1.546709,-12.883061
52.785664,5.696757,8.317604,-10.071419
52.818911,9.352385,7.581660,-12.892039
52.851828,8.628712,11.994630,-8.979026
52.885756,12.774121,9.453394,-12.029497
52.918984,9.137348,0.502202,-9.436784
52.951619,4.421949,-4.040659,-11.314802
52.985160,-3.324168,-8.092391,-7.567145
53.018413,-10.471415,1.509299,3.200264
53.051640,-9.270979,-1.582474,2.690281
53.085230,-3.123348,-1.740198,2.443520
53.118412,1.283039,-1.515733,2.309889
53.151692,1.245329,1.614797,-1.279896
53.185224,-4.029885,1.984864,-3.271045
53.218313,-15.195792,6.349201,-5.830987
53.251621,-14.480200,14.904288,-3.184402
53.285057,-12.472740,21.235980,-1.867544
53.318493,-3.017700,26.881859,-1.097032
53.351647,-1.469045,23.029601,4.292508
53.385200,-3.196074,20.356678,2.748193
53.418632,-3.513766,18.482999,-0.107444
53.451645,-5.636601,15.151049,-4.899909
53.485368,-9.635210,11.745325,-5.267132
53.518531,-5.589912,2.770340,-9.907710
53.552005,4.636238,-0.374556,-16.399520
53.585656,3.003035,0.155778,-16.324399
53.619062,-3.680917,6.368355,-12.035932
53.652004,-5.299455,16.010748,-16.090807
53.685842,-1.723288,6.587881,-14.754346
53.718979,-5.540979,-1.999230,-14.144850
53.752026,-12.748382,-2.930907,-4.617832
53.785635,-15.028940,0.269956,1.618837
53.818580,-3.786266,-1.154495,1.345739
53.852030,1.911240,0.969836,-0.697486
53.886019,-0.000898,4.889134,-0.261726
53.918417,-3.895056,7.327267,3.127687
53.952012,-7.108938,4.208858,3.596668
53.986044,-9.764352,3.346615,-4.528794
54.018507,-9.277563,12.460319,-2.093056
54.051937,-13.001578,15.696947,-1.833725
54.085452,-4.322885,27.626333,0.691949
54.118610,-4.914574,19.271019,6.107827
54.152122,-1.477724,21.188543,0.836354
54.185273,-3.330154,20.714175,0.061054
54.218461,-10.066930,10.820981,-0.867929
54.252310,-6.467119,7.250051,-2.076296
54.284850,-3.810807,0.560114,-10.183352
54.318471,1.155842,6.319721,-9.329938
54.352231,0.731006,13.483727,-12.663834
54.385456,3.493265,15.643524,-17.865123
54.418473,3.630039,2.956945,-16.868950
54.452258,5.166273,-6.131171,-19.042215
54.485493,-5.419170,-4.285325,-6.497646
54.518581,-6.338127,-1.706528,-0.055518
54.552388,-3.493115,-0.152337,-0.800141
54.585271,-1.382701,1.224977,-0.017508
54.618435,-1.833725,0.569840,-0.031874
54.652199,-2.301957,0.005686,-0.862991
54.685356,-3.856299,2.261255,-3.671490
54.718483,-10.651735,3.460792,-6.218562
54.752196,-14.981204,11.793211,-1.929496
54.785650,-13.848258,18.192991,-1.249070
54.818436,-4.910384,21.605598,0.855209
54.851972,-1.517080,19.943514,1.058125
54.885468,-4.428833,19.170608,4.493927
54.918588,-2.117597,17.760822,0.498461
54.952189,-6.620952,15.872927,-0.364830
54.985489,-8.269120,9.706590,-1.742891
55.018565,-6.134912,4.986702,-6.434946
55.052199,-5.598741,0.367822,-8.669115
55.085804,3.999208,6.276025,-14.391910
55.118582,1.078626,13.529069,-18.533129
55.151902,0.118517,16.442468,-19.980027
55.185402,2.152464,-3.042241,-18.575778
55.218530,-2.019132,-4.651651,-15.699341
55.252189,-7.948135,3.171533,-4.550492
55.285210,-7.409720,4.145409,0.059558
55.318580,-2.634464,1.831330,-0.458955
55.352194,-1.239792,0.562059,-0.038907
55.385114,-2.794283,0.024841,-0.534225
55.418567,-3.619414,-1.073389,0.514173
55.452200,-3.915258,-1.927252,-1.034631
55.485106,-10.764266,3.311598,-6.288745
55.518491,-11.400548,10.661611,-0.928684
55.552378,-6.350697,22.830875,-4.449483
55.585140,-2.443220,30.073893,6.607933
55.618901,-5.001516,20.903923,8.076230
55.651706,-3.767411,19.165969,5.768287
55.684619,-3.314442,12.846997,4.371968
55.718602,-6.851702,9.935244,1.151203
55.751837,-6.360424,5.264738,-3.949526
55.785126,-7.726065,0.397003,-7.396552
55.818856,-3.593675,5.534095,-8.425347
55.851731,-0.373509,18.229055,-18.455465
55.885132,4.794560,8.603721,-22.624068
55.919218,3.341527,0.753602,-19.063464
55.951676,-0.303476,-1.450639,-13.186088
55.985084,-4.151395,2.887361,-4.634143
56.018956,-6.278868,3.305613,-2.358373
56.051906,-4.321838,2.322459,-1.846444
56.085164,-0.517765,4.046046,0.857454
56.118955,-2.540937,1.073838,0.415259
56.151675,-2.633117,0.332058,-0.628500
56.185213,-4.371669,3.372952,-1.527854
56.218979,-12.004806,3.280772,-4.068193
56.251941,-13.715524,12.128860,-0.344029
56.285536,-15.710414,21.456704,-0.098166
56.318564,-4.491832,24.379679,2.040382
56.351324,-0.939159,20.297420,4.179976
56.385259,-6.128178,15.271661,6.696821
56.418513,-1.611056,11.785729,1.497477
56.451694,-4.820299,8.696799,-2.177604
56.486290,-9.715568,4.056671,-2.471952
56.518329,-7.580313,4.729465,-6.140598
56.551693,-1.240241,2.692226,-9.713324
56.585979,2.629227,5.723394,-12.129758
56.618378,-1.330775,7.756293,-13.824315
56.652275,-2.808050,8.233056,-15.630954
56.685764,-6.501537,-6.004872,-10.192031
56.717954,-14.610389,-0.836654,-4.299840
56.751809,-16.728435,7.868226,2.043075
56.785534,-9.179248,1.141327,-0.428727
56.818374,-2.343109,1.896874,-1.936679
56.852289,-1.175745,3.646200,-1.821753
56.885611,-4.681430,2.026614,-0.321882
56.918600,-4.445293,1.196246,1.334516
56.952196,-3.478301,0.463444,0.623263
56.985277,-1.963914,1.346038,-3.923039
57.018968,-5.911345,9.946318,-4.691456
57.052173,-11.605409,18.220974,3.304864
57.085866,-8.571698,24.264903,2.546624
57.118557,-7.196180,24.662953,3.608939
57.151900,-5.655755,19.494735,8.677794
57.185398,-0.913121,18.726767,3.499101
57.218023,-4.180276,14.823780,3.232288
57.252189,-6.418336,10.477401,2.121189
57.285113,-6.561694,4.975628,-4.703278
57.317992,-10.520498,2.681302,-5.597993
57.352195,-6.542988,8.867542,-7.080356
57.385065,3.686454,8.259542,-14.373804
57.418354,11.031828,15.745281,-18.887484
57.452224,16.429149,8.572296,-18.841244
57.485175,13.307897,-0.028881,-16.367646
57.518495,-0.101159,-0.057762,-9.935244
57.552200,-10.388363,2.645837,-0.651994
57.585045,-9.015389,1.802000,1.781200
57.618538,-4.628756,1.296506,-0.951131
57.651900,-3.546538,1.807537,0.997370
57.685149,-3.693338,1.362200,0.019753
57.718010,-3.588288,2.556799,0.193788
57.752217,-4.657936,3.086236,-0.577023
57.785004,-11.327672,4.724228,-1.757556
57.818436,-11.117723,15.204771,0.823485
57.852138,-10.969277,21.677577,4.354011
57.884861,-4.721684,22.439558,6.420131
57.918495,-2.983431,20.911405,6.400827
57.951692,-0.543054,18.607352,2.533006
57.985055,-3.175872,20.970214,-0.092779
58.018574,-14.145598,16.640445,1.375219
58.051374,-9.634611,15.130398,-0.700030
58.085275,-9.531507,3.445230,-8.609258
58.117958,-5.831436,-5.179292,-11.931481
58.151695,-0.401492,4.896018,-12.283890
58.185576,-0.668754,19.952493,-17.628089
58.218567,5.028003,14.416003,-21.303619
58.251691,7.142757,2.210975,-17.681511
58.285706,4.628606,-5.996941,-16.160989
58.318325,-4.027191,-1.600581,-4.770318
58.351880,-10.744663,2.506370,3.091923
58.385585,-5.090853,1.518876,0.314101
58.418325,0.123007,0.773654,-0.329214
58.451880,-1.217196,0.264868,-1.562871
58.485680,-2.563982,-0.199773,-0.356599
58.518324,-5.711422,0.007183,-1.945358
58.551818,-10.770701,13.509915,-6.842424
58.585601,-12.706332,19.037426,2.732779
58.618469,-12.605772,24.122443,2.561139
58.651917,-3.858094,24.992916,5.780108
58.685801,-1.010688,18.705518,3.504488
58.718420,-2.045320,20.384961,2.509662
58.751644,-8.283785,15.473380,-0.599021
58.785297,-10.058700,12.488452,-2.767048
58.818385,-10.758879,5.526015,-5.900122
58.852012,-5.016630,-3.689896,-14.434110
58.885660,-7.176277,4.264375,-13.685147
58.918370,-6.773588,11.590445,-16.588370
58.951913,-5.433236,13.936397,-17.865572
58.985409,-3.086236,5.322949,-13.396486
59.018488,-1.593548,3.434455,-9.834086
59.051876,-9.488261,2.639253,0.875411
59.084970,-9.304649,1.676899,2.998845
59.118487,-4.018362,-1.261340,1.581876
59.151825,-2.348197,0.250353,-2.131364
59.185391,-5.640941,1.540574,0.013468
59.218572,-4.365085,1.396318,-1.117683
59.251737,-6.639508,3.166894,-2.219953
59.285744,-11.074177,10.895353,-1.768630
59.318320,-10.168986,19.553694,3.238722
59.351765,-11.933576,24.698568,8.341247
59.385624,0.737291,17.754387,4.393667
59.418325,1.816665,16.151861,0.691650
59.451690,-2.602889,18.078813,3.896852
59.485766,-11.838104,11.403241,3.410961
59.518376,-9.539139,10.228694,2.119692
59.551740,-5.610413,6.912157,-4.393966
59.585255,-2.023921,5.267432,-9.256613
59.618530,-1.911838,0.901898,-11.310762
59.651849,-3.303069,11.451277,-18.832864
59.685588,-2.033348,10.407966,-20.969316
59.718327,-1.361003,-3.935759,-18.702974
59.751691,-4.963657,-3.728653,-11.209304
59.785581,-8.563168,5.653211,-2.225340
59.818318,-7.635681,5.130658,1.741844
59.851651,-4.649706,2.306746,-1.430736
59.885080,-2.864465,0.988242,-1.015028
59.918376,-1.151802,1.389734,-1.771772
59.951694,-4.088694,0.023943,1.240540
59.985646,-5.291225,-0.763478,0.979114
60.018194,-5.564323,-0.386827,-3.068578
60.051272,-10.681813,12.164475,-3.092521
60.085204,-11.375558,17.350501,-4.232950
60.118529,-8.516180,25.649549,-5.503419
60.151829,-8.730768,17.305908,-2.497990
60.185505,-10.115115,15.487297,1.173949
60.342040,-0.560114,-0.263521,-8.333167
