time_tick,acc_X_value,acc_Y_value,acc_Z_value
0.010535,-4.752061,-3.533519,-7.525095
0.035961,-4.413868,-3.413655,-7.759436
0.069331,-4.995381,-3.234083,-7.835155
0.103050,-5.632411,-3.095664,-7.454014
0.135545,-4.726173,-3.199366,-7.979560
0.169056,-4.742634,-3.477852,-7.936912
0.202280,-4.958718,-3.563896,-7.674887
0.235283,-4.895868,-3.632134,-7.684016
0.269432,-4.901555,-3.405275,-7.876905
0.302581,-4.750116,-3.267753,-8.072938
0.335643,-4.921308,-3.834451,-7.782630
0.369349,-4.679934,-4.069989,-6.907668
0.402626,-6.187885,-3.515562,-6.245648
0.435646,-6.519794,-3.268501,-6.283807
0.469419,-5.984670,-3.285561,-6.872203
0.502258,-6.178757,-3.212385,-6.640256
0.535644,-6.213474,-3.542497,-6.463378
0.569328,-5.774871,-3.864529,-6.703106
0.602524,-5.176748,-4.336802,-6.981592
0.635641,-3.806318,-4.540017,-6.811298
0.669442,-2.735772,-4.401149,-5.973447
0.702477,-2.644789,-4.461754,-4.750116
0.735640,-2.727243,-5.623283,-4.025395
0.769335,-5.240496,-8.700091,-3.033562
0.802339,-7.567743,-8.547904,-1.603125
0.835655,-8.937425,-8.642479,-1.261939
0.869434,-11.433918,-8.853326,-1.917974
0.902337,-12.294814,-8.131298,-1.508850
0.935705,-11.270957,-9.718112,-4.241629
0.969333,-12.883360,-7.278334,-5.643634
1.002226,-13.917393,-4.457265,-4.721534
1.035677,-13.191624,-5.930799,-6.422526
1.069442,-9.701352,-5.870942,-8.608061
1.102392,-9.628626,-5.602632,-10.400035
1.135516,-8.714307,-3.199815,-11.286670
1.169183,-6.571720,1.394223,-11.597179
1.202231,-4.908887,4.877163,-9.526420
1.235652,-4.565906,6.594914,-8.296953
1.269432,-3.863182,6.007266,-4.938517
1.301904,-2.243148,4.398904,-3.022638
1.335722,-0.827376,1.213006,-1.670464
1.369333,1.715956,0.192740,0.512228
1.402375,2.939287,1.089550,0.511180
1.435646,2.506220,0.991235,0.292103
1.469442,2.226986,-1.677348,-1.454230
1.502370,1.807687,-8.524859,0.785625
1.535632,-3.644404,-15.903005,4.131043
1.569333,-4.993286,-4.087497,7.073173
1.601884,-7.497261,-7.167448,7.648550
1.635661,-9.453544,-5.139637,9.347147
1.669013,-11.027638,-8.887145,6.422675
1.702331,-18.037961,-8.446297,7.948584
1.735544,-21.719626,-4.513231,6.708344
1.769485,-22.380898,-10.249794,8.298300
1.802248,-21.060299,-15.659237,8.050042
1.835532,-15.871580,-22.587555,9.714670
1.869102,-10.505234,-16.385903,3.610136
1.902214,-3.201312,-15.087002,1.566163
1.935715,-3.326563,0.866133,-2.349245
1.969339,-1.002458,-7.650196,1.831181
2.002397,-11.391270,2.177604,4.598079
2.035729,-12.454932,-2.731283,-3.194129
2.069448,-12.741199,0.789367,-5.116292
2.102376,-14.577468,-16.487510,-7.308861
2.135668,-15.584415,-8.728523,-5.188121
2.169336,-8.523662,-8.220635,-6.394243
2.202409,0.724571,-11.027189,-9.216060
2.235734,4.499913,-7.339388,-8.184422
2.269436,2.915344,-5.158043,-8.027297
2.302515,-1.541921,-3.815446,-7.014663
2.335733,-10.120203,-6.819528,-6.807557
2.369338,-8.498373,5.028901,-0.290008
2.402386,-6.210033,7.695837,0.635534
2.435656,-6.967076,4.684572,0.937663
2.469439,-6.746203,-3.040595,3.035058
2.502376,-8.067700,-2.374085,0.946492
2.535777,-6.774336,-4.908139,2.630723
2.569330,-1.810231,-2.612915,0.573731
2.602396,-3.059300,-4.424044,-1.506306
2.636334,-4.451578,-0.613237,-0.193488
2.668613,-8.279595,-0.649750,-1.342896
2.702382,-14.744170,-4.660330,-2.782760
2.736289,-15.742737,-14.090829,3.334194
2.769072,-14.676980,-19.509849,3.309803
2.802430,-10.583198,-20.348598,7.762279
2.836335,-13.087772,-10.806914,6.975157
2.869133,-12.297508,-6.088223,3.590084
2.902529,-11.993583,0.219975,2.033797
2.937048,-11.394113,-9.285943,-2.381717
2.968867,-9.157999,-5.975393,-4.392619
3.002422,-10.179611,-3.992623,-7.837250
3.037049,-5.804800,-3.864529,-6.816087
3.068929,-8.122769,-3.082046,-6.160202
3.102451,-3.514963,-7.024539,-4.010730
3.137576,-2.571764,-9.672322,-11.637283
3.168864,-6.389006,-11.485844,-12.166720
3.202412,-12.101027,-2.465068,-6.499292
3.236766,-19.900716,-1.226025,-2.389050
3.268924,-15.437316,-0.196032,-1.619286
3.302731,-8.738250,2.145132,-2.334131
3.335980,-2.348945,2.286544,0.307666
3.369029,-1.636495,-0.506691,-0.030378
3.402776,1.573496,-1.179336,0.198726
3.435498,-2.255119,-3.689746,1.383599
3.469248,-3.140407,-1.833575,2.068066
3.502723,-2.265295,1.043161,1.870537
3.535572,-8.034330,-0.572384,0.772906
3.568954,-14.465086,-6.090169,0.537517
3.602406,-20.440179,-11.806380,4.671703
3.635743,-17.598310,-16.349539,-2.073602
3.669462,-13.617209,-19.309178,1.985612
3.702576,-11.329767,-12.650216,-0.132284
3.736149,-5.662339,-2.908909,-2.436935
3.769013,-9.823461,0.095173,-1.903458
3.802875,-12.464659,-0.295096,-3.132476
3.835556,-12.030994,-7.251847,-7.346122
3.869269,-11.296845,-2.261404,-5.327439
3.902250,-8.604619,0.033370,-5.141582
3.935550,-3.615374,-1.236350,-5.690472
3.969460,-1.755611,-4.046944,-6.365512
4.002269,-1.429090,-5.276560,-8.215547
4.035912,-3.222411,-2.464619,-4.763734
4.069755,-11.661525,-3.933814,-6.078347
4.102221,-14.825276,-1.795117,-1.039570
4.135766,-14.892466,-1.233656,-3.804522
4.169047,-12.217598,0.016610,-1.265231
4.202283,-10.489222,3.550877,-0.000299
4.235799,-3.871712,0.164757,1.026251
4.269000,-4.662425,-0.785925,-0.272500
4.302343,-3.971524,-1.613750,1.623027
4.335529,-0.909979,0.362136,1.156890
4.369072,-4.286672,-1.664927,-1.265081
4.402372,-3.394052,1.886848,-0.273996
4.435491,-20.268389,-15.006494,-2.807751
4.469521,-23.877178,-7.716787,1.777160
4.502030,-17.102094,-17.678070,-3.294090
4.535476,-14.078408,-16.968463,5.152207
4.569046,-8.657443,-12.973146,4.732159
4.602286,-5.126169,-5.342552,0.940207
4.635642,-11.952132,1.437769,0.825879
4.669104,-12.725487,-5.509105,-1.825345
4.702258,-8.044805,-8.618835,-5.552053
4.735658,-9.767794,-8.166465,-7.163258
4.769339,-6.566931,-4.841249,-8.243231
4.802190,-4.923552,-3.708302,-8.504209
4.835642,-0.277737,-3.348710,-8.931739
4.869106,0.622964,-2.223545,-8.516928
4.902191,-0.898606,-2.243297,-8.331670
4.935521,-13.054402,3.480096,-3.213133
4.969330,-9.261252,7.100857,-1.427594
5.002723,-9.105175,6.087176,-3.671190
5.035541,-11.044697,0.735046,1.858266
5.069107,-2.433793,1.950297,1.567360
5.102278,1.028795,-2.432596,-1.116037
5.135735,-3.858543,-0.400744,-0.153234
5.169152,-5.067658,0.009876,-1.036577
5.202381,-12.042516,0.928834,-0.908183
5.235747,-18.948688,-1.021014,1.651460
5.269436,-16.026909,-6.424172,0.855509
5.302213,-15.350074,-18.617528,7.418848
5.335580,-4.029436,-22.681980,9.522080
5.369055,2.466565,-21.848618,11.864291
5.401923,-6.242356,-5.163580,7.996769
5.435902,-12.885754,-13.639356,2.681901
5.468999,-15.346183,-3.397793,-1.626619
5.502360,-11.265271,-19.047452,-8.522615
5.535768,-8.244578,-11.952132,-16.354178
5.568962,-10.801078,-2.750437,-15.377608
5.602427,-13.667040,-7.312452,-13.062782
5.635637,6.554211,-6.613919,-13.283655
5.668850,10.045980,-3.340180,-12.769033
5.702400,5.241543,-1.908696,-8.505705
5.735472,-7.646006,0.174035,-5.131855
5.769056,-9.807000,2.987771,-2.683248
5.802405,-5.439970,-4.126404,0.802086
5.835530,-0.889927,-0.316495,1.738552
5.869456,-12.599038,5.856726,-3.134720
5.901901,-33.024253,3.601158,9.257362
5.935531,-12.552499,3.278527,0.936914
5.969084,-5.934989,-27.081483,5.615950
6.002243,-5.652313,-20.136853,11.776002
6.035522,3.414852,-13.121591,11.408329
6.069443,-6.739320,-7.576572,6.755032
6.103841,-10.359931,-3.686604,3.514963
6.135562,-14.827521,-16.048159,0.187802
6.169072,-14.430818,-12.039673,-5.295714
6.202213,-11.261380,-8.135040,-6.233527
6.235519,-9.263796,-9.342808,-11.103207
6.269441,-7.331756,-2.401769,-8.779402
6.302194,-5.895633,2.184937,-7.584952
6.335530,-6.547926,-1.383449,-8.931739
6.368905,-4.836161,-4.558423,-12.611758
6.402223,-15.979024,-2.738017,-7.539461
6.435532,-13.893599,-0.907884,-2.548120
6.469430,-12.293767,1.191457,-3.795244
6.502313,-11.277242,-0.491876,-1.064560
6.535852,-6.877440,0.462846,2.264397
6.569339,-3.496407,-2.740561,0.063598
6.602371,-1.982619,-0.032772,1.245778
6.635857,-4.253152,-0.714844,1.664927
6.669099,-1.267925,-0.264419,1.433879
6.702364,-7.383682,-3.020094,-1.403651
6.735523,-7.713495,-3.723715,-2.725746
6.769335,-9.661398,-7.678778,-0.977318
6.802268,-21.176572,-16.116994,5.782054
6.835779,-12.253812,-19.741047,2.514450
6.868892,-7.732201,-20.758470,5.804800
6.902327,-11.314952,-2.245392,4.826584
6.935515,-9.481227,-2.640899,3.628393
6.969339,-8.771621,-4.688463,-0.586600
7.002138,-8.235300,-7.367820,-2.878532
7.036221,-7.207104,-9.429152,-3.436850
7.069048,-7.554126,-6.120247,-6.614518
7.102339,-5.225532,-2.810145,-7.029926
7.136838,-6.153468,-1.265530,-8.529349
7.168616,-4.550941,-0.650498,-9.647032
7.202265,-8.605667,-0.111933,-9.194811
7.237027,-9.389047,-0.249305,-7.295094
7.268592,-12.149361,0.646158,-8.010387
7.302215,-17.023980,0.820193,1.642032
7.336508,-10.033709,3.358886,3.202658
7.368614,-3.491170,2.644490,0.103703
7.402875,-0.493373,-1.190859,0.511929
7.436384,-0.560413,-1.561823,0.597674
7.468956,-1.226623,-3.120953,2.007610
7.502798,-2.679656,-0.654089,1.028047
7.536157,-2.290884,-3.951921,-0.440399
7.568896,-8.089847,-1.074137,-1.030741
7.602773,-21.839041,-7.763027,-1.932489
7.635538,-24.732088,-6.235921,4.417161
7.668881,-21.733094,-10.200262,-0.943199
7.702485,-16.996745,-14.619517,-2.066719
7.735472,-7.563553,-12.917179,0.331309
7.768844,-0.800141,-7.863138,0.512377
7.802790,-5.487557,-1.817713,-0.365578
7.835575,-9.777969,-1.151502,1.529650
7.868923,-12.388790,-8.106757,-2.057740
7.902758,-8.380604,-6.235173,-5.366046
7.935520,-7.828571,-1.382252,-4.957372
7.968987,-7.507437,0.196481,-6.260163
8.002835,-7.027532,-4.047542,-6.938644
8.035527,-6.558401,-4.324382,-10.391356
8.069109,-5.591109,0.328466,-7.710054
8.102809,-8.195495,0.180769,-5.811384
8.135523,-11.128048,2.987322,-5.817370
8.168997,-13.672876,2.412244,-1.059322
8.202816,-10.228694,2.112659,-1.443456
8.235647,-5.069753,2.074949,0.665313
8.269102,-3.003334,0.667707,0.550087
8.302774,-2.322459,-3.204604,-0.347022
8.335249,-3.418144,-5.203085,1.785240
8.368811,-3.434006,-1.162875,0.387725
8.402796,-4.075526,-2.249732,-0.142011
8.435478,-5.662938,0.369917,0.404485
8.468916,-9.771385,-1.277053,-3.945037
8.502725,-19.929448,-6.532663,2.459980
8.535283,-23.706436,-8.774613,-0.273098
8.568804,-21.210391,-17.243806,-3.478600
8.602471,-10.246651,-17.352446,2.593911
8.635535,-6.136109,-7.173135,2.251977
8.668918,-7.368868,1.243982,-0.194087
8.702762,-9.530310,-2.903971,1.542819
8.735530,-9.358969,-5.588117,-0.772307
8.768974,-8.621978,-8.131448,-4.355957
8.802150,-6.484478,-2.053251,-3.561053
8.835719,-6.452903,-1.286331,-3.711295
8.868922,-4.962908,-1.008444,-3.851510
8.902337,-4.629354,-3.471417,-7.998416
8.935522,-8.075182,-3.229295,-6.428062
8.968847,-8.952240,-2.493051,-5.728931
9.002312,-13.965877,-2.754328,-6.618408
9.035524,-18.465042,-4.496621,-3.652186
9.068890,-18.432869,-3.931270,1.429838
9.102773,-8.723286,-0.796849,0.395357
9.135472,-3.090426,-0.548142,0.419898
9.168855,-2.083479,-1.369682,-0.459853
9.202809,-2.142139,-1.855124,1.988455
9.235526,-5.582580,0.777096,2.460729
9.268924,-5.504167,1.321946,2.512954
9.302762,-3.793598,1.569904,1.991299
9.335528,-6.769997,0.242122,0.567147
9.369108,-11.485844,-4.516673,-1.540125
9.403319,-22.480411,-14.161610,-0.241524
9.435222,-24.054206,-17.239017,-3.395997
9.468861,-18.135977,-19.543668,-4.360446
9.502461,-12.652910,-13.221254,0.915665
9.535536,-5.933193,0.100410,0.964748
9.568917,-3.197271,1.896575,-0.593634
9.602839,-4.276945,-1.406494,-0.258433
9.635483,-7.539012,-9.843214,-3.236328
9.668686,-6.962737,-3.912265,-3.143998
9.702768,-5.888151,3.246204,-2.670827
9.735533,-4.220530,-0.023344,-3.229444
9.768972,-2.593312,-2.388002,-4.389925
9.802773,-6.187137,0.552781,-5.074542
9.835313,-9.245390,2.322758,-3.474410
9.869094,-14.927483,-2.216661,-2.581939
9.902761,-17.486676,-3.443883,-3.515711
9.935378,-17.715331,-4.774059,-0.511480
9.968986,-13.355483,-1.992795,1.251015
10.002780,-6.974259,-0.139916,-0.128543
10.035537,-3.423082,-3.448372,-0.036962
10.068794,-4.175188,-4.792315,0.358395
10.102220,-3.842382,0.162063,1.377912
10.135476,-3.241117,-0.587498,0.412117
10.168853,-3.143250,-1.321796,0.108341
10.202793,-5.556841,-1.150156,-1.016076
10.235529,-11.105751,-4.209755,-1.073090
10.269743,-20.589223,-12.130506,4.159924
10.301932,-17.929470,-11.233247,-0.245414
10.335567,-16.278908,-15.007093,-1.131750
10.369421,-15.800499,-16.577296,2.467313
10.402016,-6.783614,-2.333682,2.160395
10.435281,-4.638482,1.961370,-1.997135
10.469131,-6.944630,-3.979006,-2.224742
10.502243,-9.481676,-10.185746,-5.117190
10.535481,-7.387423,-3.242463,-5.524518
10.569052,-5.694213,3.256679,-5.062271
10.602509,-4.460707,3.782674,-4.132091
10.635647,-3.929624,0.864936,-4.723480
10.669402,-5.942770,-2.563533,-7.013166
10.701936,-8.587859,0.892919,-5.742548
10.735528,-13.768348,-0.176279,-5.627323
10.769210,-16.987767,0.490530,-5.107014
10.802288,-17.206694,0.232545,-0.766920
10.835778,-13.397084,1.316858,0.605306
10.869198,-6.912606,0.840544,-0.267113
10.902308,-3.289002,-1.199538,-0.018556
10.935362,-2.702552,-4.924450,0.537218
10.969588,-3.429218,-2.647932,2.891551
11.002771,-2.611868,-1.102719,1.600731
11.035657,-3.521099,-3.109580,-0.425884
11.069831,-6.308947,0.923297,1.598486
11.102483,-8.812623,-1.955235,-1.852131
11.135273,-17.344964,-12.426051,2.032899
11.169268,-21.081100,-15.710714,0.538864
11.202432,-17.030564,-15.149403,-4.174589
11.235521,-14.789362,-16.426755,-1.383599
11.269497,-11.405785,-3.077258,1.754414
11.302518,-5.598592,2.284898,-1.580678
11.335659,-7.912520,-1.411582,-2.747744
11.369060,-7.437254,-3.368313,-4.316002
11.402393,-6.688890,-5.257106,-5.903414
11.435562,-4.824189,-0.396703,-3.899546
11.469114,-4.219183,1.817414,-4.945250
11.502337,-5.084568,-0.045342,-4.092286
11.535521,-5.148017,-1.718949,-5.624480
11.569361,-8.097180,1.300098,-9.137947
11.603184,-14.236880,-0.645111,-4.555580
11.635477,-15.952387,1.496130,-4.739192
11.669117,-18.410572,0.083501,-2.330689
11.702755,-15.934879,0.030527,0.876309
11.735647,-10.310848,0.632541,0.830967
11.769057,-3.178715,0.508936,-0.248258
11.802402,-1.977980,-2.946919,-0.318291
11.835682,-1.957928,-3.666402,0.906537
11.869447,-0.960109,-2.179550,2.336375
11.902286,-1.280794,-1.800055,1.013681
11.935647,-2.607229,-0.316345,0.718735
11.969346,-9.811938,-2.954401,0.957416
12.002136,-14.970131,-9.195260,1.956582
12.035525,-18.532680,-10.869166,2.693573
12.069451,-18.630547,-18.045593,-2.846209
12.102247,-22.046596,-13.444671,-0.666061
12.135601,-20.395436,-10.598312,1.905853
12.169059,-5.631064,-0.906836,2.181645
12.202197,-4.058616,4.516224,-1.965410
12.235729,-4.257940,-3.350955,-4.241629
12.269002,-4.786180,-5.121530,-4.160972
12.302463,-6.205094,-5.087711,-5.170762
12.335554,-5.888300,-0.501304,-4.270660
12.369060,-4.948692,2.854140,-4.063105
12.402300,-3.155222,-0.063299,-6.062485
12.435547,-5.026507,-0.171042,-7.964447
12.469116,-8.988902,2.525374,-5.615651
12.502346,-13.518445,1.266877,-5.596347
12.535517,-15.210158,1.408888,-5.663836
12.569353,-16.415083,0.892770,-0.320086
12.602092,-12.696755,1.428492,0.305122
12.635273,-7.284319,0.427231,-1.327632
12.669449,-4.361194,-2.716768,0.116273
12.702755,-4.262879,-1.113344,0.237932
12.735473,-2.960835,0.008679,-0.144405
12.769053,-3.846123,-1.154645,0.510881
12.802209,-3.976612,0.611291,-0.023045
12.835724,-5.398968,2.267989,-0.416905
12.869114,-14.092774,-1.243832,-1.046453
12.902202,-18.503650,-10.259820,-1.492539
12.935643,-18.631295,-12.559533,-1.655500
12.969743,-22.857810,-13.857835,-2.876437
13.002188,-16.449800,-14.798640,1.269870
13.035726,-12.327885,-6.221854,3.419341
13.069116,-1.036726,2.120740,-0.411817
13.102321,-2.270383,-1.220338,-1.811877
13.135350,-5.504017,-3.527832,-3.353199
13.169127,-6.026121,-6.702957,-3.732394
13.202906,-6.642800,-3.250843,-3.806617
13.235482,-5.773524,0.501753,-4.922804
13.269112,-3.751249,0.808072,-4.721684
13.302560,-3.803924,-1.968403,-7.092776
13.335485,-5.704988,0.007033,-6.433450
13.369062,-11.114431,0.949784,-3.652485
13.402335,-14.079306,0.949933,-4.958569
13.435531,-16.410743,-1.581427,-4.910683
13.469457,-17.586488,-0.768716,0.863889
13.502204,-12.785942,1.726131,0.314101
13.535519,-6.772690,1.045555,-1.037923
13.569347,-5.050300,-1.642331,0.908183
13.602133,-4.536576,-0.785476,1.470691
13.635522,-0.951879,0.351212,1.962118
13.669453,-2.357924,-2.380071,-0.315597
13.702084,-2.901726,-0.898157,-0.244816
13.735577,-5.527810,-0.299436,-1.542819
13.769076,-16.700003,-6.993264,-0.341336
13.802408,-20.990267,-9.415085,-1.440613
13.835527,-18.451873,-10.648891,-3.068429
13.869000,-22.397209,-13.839279,-1.688721
13.902193,-14.058805,-9.351936,-0.387426
13.935712,-8.840905,-2.398328,-0.077066
13.969125,-5.173606,0.792659,-3.337337
14.002318,-4.811021,-2.624737,-3.555666
14.036143,-4.311662,-4.057120,-4.648808
14.069187,-5.376671,-5.007352,-4.091238
14.102305,-6.322265,-0.217581,-3.813800
14.136108,-3.059450,2.577749,-2.927465
14.169128,-1.898969,-1.251913,-5.089955
14.202418,-3.647248,-1.426097,-6.202251
14.235578,-6.204496,3.201461,-3.890866
14.269853,-15.084608,0.562957,-5.283144
14.302473,-18.103654,4.118024,-5.676705
14.335688,-18.871921,3.365919,-2.822715
14.369093,-13.823866,3.100602,1.188913
14.402301,-6.281412,2.801166,0.400893
14.435644,-2.762558,-1.718949,-0.097418
14.469134,-4.602718,-1.677497,0.119714
14.502265,-2.886463,-1.807687,0.495318
14.535891,-1.963914,-2.186134,0.059857
14.569197,-2.772734,0.132883,-0.403288
14.601958,-5.604428,-0.218329,0.113729
14.635923,-8.890886,-2.629376,-1.705780
14.668954,-18.327670,-9.111460,0.021100
14.702261,-19.508652,-12.430241,-1.958078
14.735824,-18.389472,-14.819141,-5.187672
14.768609,-19.728926,-13.525627,1.563769
14.802271,-13.154962,-8.225723,1.224678
14.836188,-6.502285,1.377912,-1.388836
14.869153,-3.963892,-1.183376,-5.541278
14.902348,-2.875389,-3.394201,-4.864294
14.935993,-7.633586,-5.062421,-4.086300
14.968578,-7.007181,-1.350677,-5.050001
15.002227,-5.000020,0.008979,-5.947709
15.035723,-1.833725,-1.107059,-6.222752
15.069445,-2.639402,-0.775899,-7.553826
15.102415,-2.861622,2.196609,-6.425518
15.136106,-10.599210,3.447325,-6.823120
15.169179,-15.708319,6.072810,-3.881738
15.202374,-15.179481,5.028452,-3.956859
15.236013,-13.175014,3.059151,-0.703172
15.269009,-9.870149,3.110329,0.054320
15.302262,-6.434497,1.999379,0.643315
15.335718,-1.928898,-0.305571,-0.118667
15.368879,-2.235516,-1.799456,-0.769314
15.402301,-1.905853,-1.668818,0.119864
15.435996,-3.358137,-0.679529,0.567895
15.469066,-2.617554,0.556672,1.125764
15.502310,-3.719974,2.460878,0.271003
15.536004,-12.709175,-8.475926,-1.899119
15.569425,-22.924252,-11.779444,0.875112
15.602814,-25.178773,-18.389472,0.041002
15.635630,-16.675013,-21.722021,-1.592800
15.668917,-9.960534,-16.451446,0.525845
15.702257,-8.794815,-1.156890,-0.234939
15.735753,-6.471459,1.460964,-4.333211
15.768978,-6.931312,-0.787421,-3.013809
15.802201,-6.711337,-6.230534,-5.231517
15.835726,-4.735152,-2.496643,-4.212449
15.868885,-5.972100,-0.228954,-4.420752
15.902349,-4.833467,-2.788147,-5.844605
15.936007,-3.642908,-5.924813,-8.944159
15.968873,-3.548633,-0.034568,-8.352171
16.002404,-9.523726,2.107721,-5.438324
16.035720,-14.435307,5.149064,-5.991704
16.068669,-16.853238,1.388836,-4.158129
16.102259,-14.010620,1.863055,-0.009278
16.135842,-7.878103,2.813886,0.696887
16.169009,-5.123026,0.452969,-0.176279
16.202192,-3.599661,-0.830518,-0.479905
16.235725,-3.515711,-0.748364,0.434862
16.269153,-0.881996,-1.370430,0.806725
16.302395,-1.424002,-0.763778,-0.178524
16.335759,-2.985975,0.502202,-0.341036
16.369016,-5.307835,1.992945,-1.252960
16.402401,-11.956621,-2.774380,-3.127687
16.435995,-22.477268,-6.024326,-0.457458
16.468915,-21.781878,-11.806978,-4.888835
16.502569,-20.222598,-12.721596,-4.376757
16.535772,-14.594527,-12.437873,-1.491342
16.568981,-6.425219,-4.854716,3.442985
16.602438,-6.056050,1.903758,0.536320
16.635292,-7.061202,-6.771044,-1.968553
16.668913,-6.250885,-7.649598,-3.088331
16.702394,-8.533838,-4.107849,-3.826669
16.735824,-6.915001,2.424665,-3.303069
16.768979,-4.713154,1.445850,-3.937854
16.802391,-3.725810,-2.253024,-5.422761
16.835792,-8.314611,-0.419150,-6.369702
16.869103,-10.439092,2.221450,-5.668475
16.902216,-13.384664,1.226025,-6.837336
16.935722,-17.543541,2.853841,-5.972699
16.969014,-15.298148,5.265935,-3.631385
17.002123,-10.425325,6.044976,-2.304950
17.036019,-6.145686,2.167279,-0.076318
17.068574,-3.003933,1.103766,2.038586
17.102251,-0.116273,0.738338,-0.258284
17.136029,0.223267,-1.288575,0.254243
17.168878,-3.008571,-0.829920,1.028047
17.202404,-2.372290,-1.085211,-0.894715
17.235732,-4.960065,-0.666809,0.801787
17.269157,-6.988924,1.119479,0.441896
17.302396,-13.011155,-0.899504,-2.739214
17.335897,-22.577230,-6.622449,-0.585702
17.368880,-24.496999,-9.139742,-3.629290
17.402262,-23.558439,-14.663363,-4.003847
17.436001,-10.969427,-14.084693,0.890525
17.468961,-6.295030,-9.351188,5.317861
17.502405,-3.440591,-2.230727,3.192782
17.535758,-8.615393,0.041750,3.062293
17.568625,-9.966669,-2.827503,-0.493971
17.603353,-6.842573,-5.909849,-2.792786
17.635681,-6.763712,-4.406237,-5.781605
17.668918,-6.537002,-1.441361,-5.829042
17.702027,-6.999698,-3.342724,-7.391763
17.735789,-5.845353,-4.254648,-10.865425
17.768996,-4.956773,-1.532344,-8.977080
17.801953,-5.792978,-1.062764,-10.853902
17.835729,-14.357193,5.114646,-5.281498
17.868963,-14.189443,6.121594,-3.672238
17.902719,-13.854842,4.438709,0.314250
17.935478,-10.390458,1.584420,0.764825
17.968851,-5.809588,0.495468,4.023899
18.002662,-1.468446,1.034033,3.882037
18.035796,1.070845,-1.366988,2.039783
18.069093,-1.414126,0.639424,2.352686
18.102707,-1.065607,-0.232695,2.446064
18.135791,-2.882871,0.606952,0.991833
18.169001,-6.270189,2.128072,-0.220274
18.202648,-11.075823,-0.997520,-6.367008
18.236067,-28.781726,-4.917267,-1.078327
18.268916,-27.707888,-7.007330,-5.049701
18.302868,-25.255988,-8.347682,-3.400786
18.335552,-14.407473,-8.346335,-0.758091
18.368924,-6.120696,-5.051198,6.415941
18.402874,-1.916328,-3.250843,3.611184
18.435569,-5.210867,-6.817733,4.755503
18.469185,-7.713346,-2.003420,3.576466
18.502839,-6.568128,-5.371134,-1.043460
18.535698,-4.996428,-7.366922,-3.918999
18.569127,-8.735856,-7.350462,-5.816322
18.602848,-6.137157,-4.962609,-6.936998
18.635872,-4.102910,-3.238273,-8.450038
18.669065,-6.212128,-1.777609,-9.096795
18.702077,-7.361086,-1.770875,-8.781347
18.735856,-12.380111,-2.045918,-8.839409
18.768919,-15.158980,0.388473,-5.130808
18.802224,-12.643632,0.096969,-4.813714
18.836261,-16.773029,1.834174,-2.304501
18.869001,-11.877759,6.461283,0.862243
18.902813,-2.579844,9.117146,1.078177
18.935933,-0.289110,8.945955,0.562807
18.968882,-0.561760,3.527982,-2.950510
19.003039,-2.485120,-2.576403,-4.154687
19.035557,2.343708,-3.831907,0.508487
19.069008,-2.579844,-17.987082,-3.538307
19.102789,-6.437490,-4.878061,3.174675
19.135558,-4.835113,-4.263328,0.391765
19.168934,-11.345330,-7.675785,2.514002
19.202778,-12.833678,-13.561691,2.762558
19.235530,-13.903625,-14.987938,4.491683
19.269028,-15.658488,-28.177917,7.706761
19.302464,-20.519340,-19.782648,6.228888
19.335479,-16.011646,-17.990973,0.958014
19.368861,-12.302147,-10.625248,4.390225
19.402492,-7.266362,7.111332,4.212898
19.435378,-0.463893,1.236200,4.739491
19.468989,-1.455727,-5.124672,3.618366
19.502642,-6.871454,-8.188013,1.182778
19.535551,-10.428018,-9.335176,-0.533327
19.568920,-11.758045,-6.219759,-4.657786
19.602870,-8.734060,-3.664157,-4.062058
19.635557,-8.019665,-2.692376,-6.365661
19.668993,-7.025138,-9.732179,-11.897961
19.702769,-7.739234,-16.773478,-15.859608
19.735554,-10.121250,-10.998008,-15.126657
19.768917,-7.935117,-4.422847,-10.519151
19.802466,-9.937638,9.374532,-1.329129
19.835629,-11.770016,7.744621,-0.930330
19.869189,-9.882420,2.174162,-1.293963
19.902394,-2.329941,-0.450276,0.990337
19.935738,2.113557,-3.433108,-1.399311
19.969080,2.990914,-3.370857,-0.556971
20.002055,-0.213241,-3.159860,1.459019
20.035753,-2.062080,-4.261681,3.386719
20.069032,0.137821,0.676536,2.584184
20.102816,-6.524881,2.693573,0.061054
20.135547,-16.364953,1.411432,-1.334366
20.169185,-24.919890,-7.776196,1.240540
20.202795,-20.103931,-6.117404,0.511180
20.235534,-14.486335,-6.151971,-0.701676
20.269006,-16.296267,-16.924168,3.667599
20.302355,-8.343492,-5.721748,4.382892
20.335453,-8.844796,-5.978385,2.403565
20.369163,-10.522443,1.065458,-1.696951
20.403629,-6.648786,-3.707853,-3.637820
20.435527,-5.355871,-7.680574,-4.927892
20.468988,-9.115650,-9.724397,-5.879322
20.502041,-6.624544,-4.084205,-6.628883
20.535733,-5.783850,-1.569904,-6.176363
20.568944,-5.253066,0.684616,-5.908502
20.602988,-3.642010,1.860062,-5.493842
20.635554,-4.294304,-2.024819,-10.229741
20.668991,-15.354713,-6.761916,-5.449098
20.702812,-17.209089,3.999956,-1.841656
20.735622,-15.211355,-0.370516,-1.765487
20.769093,-15.737949,-0.019304,-1.937278
20.802560,-9.368846,1.612702,-0.070033
20.835628,-5.048654,-0.237334,1.216896
20.869184,-4.284577,-0.023494,0.156527
20.902554,-2.372290,-0.323229,3.229145
20.935620,-4.537473,-0.345077,1.470392
20.969055,-3.352451,-0.901449,0.214438
21.002856,-3.025930,0.117320,-1.251614
21.035606,-7.641816,-1.452285,-2.793684
21.069565,-13.860079,-7.255887,-4.712705
21.101901,-16.927460,-7.167299,-0.367523
21.135448,-19.719050,-15.080867,-3.565094
21.169795,-15.586211,-16.090358,-2.227286
21.202444,-8.489095,-15.087600,4.020008
21.235589,-9.996149,0.854910,3.682414
21.269726,-8.245177,-1.371178,0.194237
21.302137,-8.169308,-3.507780,0.422143
21.335736,-10.407667,-7.264716,-2.733378
21.369507,-7.254391,-2.291931,-3.489075
21.402521,-5.356619,-2.489759,-7.284170
21.435749,-6.262258,-7.212491,-6.894499
21.469731,-3.993372,-4.412372,-6.523984
21.502259,-3.329107,-0.894416,-11.296396
21.535537,-8.962266,-2.404313,-8.560474
21.570351,-16.007007,0.379495,-7.285517
21.602082,-15.205220,-1.508850,-4.154836
21.635556,-12.049998,1.806190,0.889777
21.669349,-8.256101,2.020629,1.910342
21.701908,-4.175487,0.596926,2.073752
21.735596,-1.649215,-0.261726,2.090362
21.770276,-2.682200,-2.034396,1.606567
21.802314,-3.305463,-1.115289,2.512206
21.835748,-3.984393,-0.268310,1.321347
21.870422,-4.318995,-1.528902,0.268459
21.902284,-6.795286,-0.671897,-1.738552
21.935869,-11.928339,-8.199386,-3.109281
21.969586,-20.528319,-9.027360,-3.002735
22.002206,-22.565109,-12.134397,-3.087134
22.035537,-23.488406,-18.028533,-1.752020
22.069082,-13.482530,-10.079650,2.968168
22.102039,-8.860209,-7.264566,0.029180
22.135754,-5.958184,-0.203065,-0.450575
22.169207,-5.943818,2.628478,-3.166295
22.202236,-6.173520,-2.197956,-3.822928
22.235625,-4.207810,-5.800610,-4.537025
22.269085,-4.615288,-3.577664,-4.245221
22.302541,-3.330902,-1.732716,-3.431013
22.335620,-2.270532,-2.136602,-3.916904
22.369162,-1.721343,0.105798,-5.565520
22.402318,-6.570523,0.525845,-6.213774
22.435609,-8.621828,0.934670,-5.121231
22.469863,-14.284766,2.052802,-5.030248
22.502304,-16.805202,-0.946492,-3.390161
22.535601,-17.741069,0.276690,0.522254
22.569618,-12.777413,0.765573,0.304374
22.602825,-8.324637,0.166702,-0.260229
22.635528,-4.777501,-2.497541,0.069584
22.669151,-2.845012,-0.790863,0.188400
22.702355,-1.573945,-0.473919,0.195284
22.735737,-2.810145,-0.455363,-0.368421
22.769530,-3.727307,0.382038,-0.069883
22.802421,-6.146883,1.233507,-0.155180
22.835725,-9.342060,-1.701291,-4.007288
22.869403,-17.206245,-9.275917,-1.727927
22.902917,-22.085354,-14.256035,-1.071892
22.935773,-19.865400,-19.273263,-0.994228
22.969495,-12.338360,-16.894389,1.447197
23.002332,-8.074584,-6.113663,1.980375
23.035729,-7.206804,1.649065,-1.302343
23.069542,-7.749559,-3.370258,-4.194641
23.102276,-6.585038,-2.449805,-4.371370
23.135880,-6.392148,-3.535165,-6.396188
23.169384,-5.893987,1.207619,-5.283743
23.202270,-4.383491,-0.504446,-5.565072
23.235592,-4.674397,-4.866089,-7.664861
23.269483,-4.325878,-4.647461,-8.080569
23.302335,-5.556692,-1.929197,-7.150838
23.335738,-9.423465,0.088738,-7.062997
23.369464,-16.184184,3.163901,-4.718541
23.402258,-17.412453,2.307644,-1.740347
23.435847,-14.692244,2.623540,0.418252
23.469497,-8.651158,2.600345,0.688806
23.502210,-5.028153,0.262923,1.413677
23.535598,-3.159711,0.026038,0.456411
23.569476,-1.837466,-0.379345,-0.468532
23.602147,-0.118368,-1.939073,0.353457
23.635662,-1.786437,-1.800504,-0.163560
23.669585,-2.150818,-1.015178,-0.239279
23.702798,-4.444994,0.218329,0.452670
23.735524,-9.372736,-1.724336,-1.496429
23.769345,-19.071096,-9.505021,-2.316174
23.802119,-22.424445,-10.140704,-2.175060
23.835876,-21.276982,-9.392190,-4.474174
23.869355,-20.697565,-15.127705,-1.440164
23.902275,-13.151221,-11.740237,2.553507
23.935485,-7.571035,-1.886549,1.702937
23.968602,-5.893089,-0.704968,-3.529329
24.002200,-5.821111,-3.462588,-3.610884
24.035525,-7.666059,-6.956901,-4.816558
24.068559,-4.845139,-1.340352,-4.130295
24.102233,-4.107400,1.906002,-4.266171
24.135498,-2.913249,0.211745,-5.464063
24.169010,-0.888131,-3.354845,-6.022231
24.201887,-4.878210,-6.195068,-8.730020
24.235467,-7.246460,0.954872,-6.389604
24.268821,-13.205840,0.843837,-7.038306
24.302135,-16.270678,0.355252,-7.309908
24.335257,-18.041253,1.799905,-3.736734
24.368613,-13.764158,3.000491,-0.801488
24.402146,-9.075545,2.966671,1.005900
24.435250,-5.093696,-0.127197,1.696801
24.468845,-0.909829,-0.591539,0.409573
24.502174,0.167899,-0.879003,0.074672
24.535252,-1.739450,-1.497776,-0.061054
24.568860,-4.324532,-0.448929,0.872718
24.602207,-4.691157,0.860297,0.809568
24.635246,-7.556670,0.053273,0.458356
24.668938,-18.434515,-5.196202,0.864338
24.701939,-19.920619,-6.218413,0.210398
24.735465,-18.254345,-11.960661,-1.684680
24.768939,-19.692413,-12.837419,-0.990936
24.802326,-13.661952,-12.561628,2.584932
24.835588,-6.324510,-7.650645,2.287442
24.869110,-4.658385,0.874214,-2.113108
24.901933,-5.764396,-3.533369,-1.206870
24.935644,-7.901148,-5.090554,-1.262388
24.969354,-6.145237,-4.220230,-2.503826
25.002281,-6.223052,-1.061866,-4.449633
25.035679,-4.648508,-0.068985,-4.761040
25.069475,-3.646948,-3.899396,-7.306167
25.102268,-3.189340,-4.341142,-9.098441
25.136065,-4.954678,-2.436636,-8.606714
25.170583,-13.992513,-1.868143,-7.271600
25.202254,-17.122745,-3.682114,-5.102376
25.235758,-16.656307,-4.031231,-1.708623
25.271098,-14.634781,-2.357026,0.305571
25.302099,-9.827950,-0.247061,1.075783
25.335820,-5.421265,-0.649301,2.521633
25.370266,-3.426524,-0.055069,0.564453
25.402229,-1.817414,-0.299884,0.259182
25.435815,-3.066932,-1.671212,1.086557
25.470708,-4.458163,-1.070097,0.808371
25.502188,-4.298045,0.538116,0.606653
25.535846,-6.313586,-0.405682,-0.994527
25.569966,-14.491573,-10.201459,-3.274637
25.602202,-21.285213,-10.083690,-0.338642
25.636264,-22.357554,-8.453180,-2.378874
25.668975,-22.877563,-9.290582,-1.292167
25.702270,-17.188139,-9.494546,-3.264461
25.735879,-8.404397,-4.441702,0.291504
25.768868,-6.747849,2.150369,-0.686412
25.801940,-3.142652,-0.960708,-5.794175
25.836447,-1.323143,-0.227457,-2.592863
25.868572,-7.460748,-4.316451,-5.575995
25.902261,-5.081276,-1.445102,-1.255055
25.936520,-4.072234,0.533327,-3.717131
25.968581,-0.910877,-0.587648,-3.762772
26.002205,-1.716255,-2.333682,-4.608554
26.035622,-7.782780,0.506242,-3.822479
26.070722,-12.123922,6.064580,-1.414575
26.102394,-15.156137,4.872823,-3.987087
26.135883,-18.028084,4.314805,-7.160565
26.169071,-19.252164,1.559728,-2.694321
26.202159,-14.247954,3.817092,0.459703
26.235620,-5.068556,0.611441,0.164009
26.268746,-2.471054,-2.435439,0.630296
26.301939,-3.077407,-0.811214,0.533327
26.335764,-0.545149,-1.898670,-0.504147
26.368933,-3.957008,-1.568857,0.197229
26.402461,-6.170677,-0.804331,0.792060
26.435676,-5.235258,0.204861,0.038608
26.468697,-8.074733,-3.257128,-3.575269
26.502342,-15.025948,-12.354372,-5.911196
26.535567,-23.011045,-11.654342,-2.141391
26.568854,-24.221058,-13.768498,-1.856321
26.601977,-10.914358,-13.840177,2.010902
26.635680,-6.569475,-4.988946,4.273503
26.668988,-5.989010,-2.116400,2.130616
26.702277,-7.638075,0.067489,-0.153983
26.736021,-9.310186,-7.869723,-5.490100
26.768868,-8.454078,-4.922205,-4.052481
26.802394,-8.772967,-0.250802,-4.546153
26.836020,-5.579737,-2.543032,-6.614368
26.869016,-3.413655,-5.333424,-8.425347
26.902395,-0.543802,-4.614988,-10.281368
26.936014,0.668156,-0.755847,-11.646860
26.968639,-9.881073,0.829321,-9.141388
27.002402,-17.398836,5.591858,-3.816943
27.036025,-14.116118,4.294304,-2.302556
27.068570,-13.174715,2.912351,-0.513575
27.102212,-11.023448,3.693936,1.138035
27.136031,-3.341826,-1.932938,2.981935
27.168583,-1.314913,-2.873145,1.486703
27.202547,-0.827525,-1.954636,0.072876
27.236021,-2.123882,-2.804608,1.633802
27.268922,-4.902153,-3.607443,1.638590
27.302487,-4.530141,-1.693958,0.935568
27.336031,-7.485290,-1.693659,0.086943
27.368869,-11.530139,-1.528154,-0.746269
27.402484,-14.969682,-6.052309,-2.649428
27.436023,-18.826280,-10.550426,-3.327161
27.469452,-23.415081,-9.721404,-2.912950
27.502253,-21.160710,-12.218496,0.631344
27.536025,-9.647331,-13.816533,1.186220
27.568643,-5.790733,-4.216489,2.846807
27.602270,-5.398369,0.439950,-2.099191
27.635818,-7.253343,-3.982597,-2.288340
27.669016,-9.395632,-6.496000,-3.961348
27.702220,-6.725852,-3.679870,-4.580571
27.735674,-6.661505,0.676985,-5.488305
27.768858,-6.566183,-0.834110,-5.406749
27.802203,-4.773161,-4.480908,-5.582729
27.835606,-3.572875,-5.383704,-9.142286
27.868888,-4.694748,-4.003547,-12.657399
27.902181,-14.250498,-3.257128,-8.170056
27.935622,-17.981994,0.095771,-7.791459
27.968848,-14.666356,2.522980,-2.811192
28.002193,-13.730339,0.812112,-0.497114
28.035539,-8.734509,2.572811,1.073090
28.068714,-3.232138,2.013147,3.176022
28.101896,-0.621168,-1.209564,2.652272
28.135731,0.658878,-0.096969,0.575976
28.168632,0.139916,-3.241416,1.089101
28.202274,-4.089592,-2.076146,0.755398
28.236024,-3.725810,-0.674590,-0.212493
28.268928,-4.561566,0.143957,-0.988841
28.302397,-11.904545,-4.637884,-3.327610
28.336087,-22.952983,-7.792956,-0.167750
28.369737,-24.535009,-11.455317,-3.399289
28.402314,-23.180890,-9.751932,-0.624011
28.436015,-12.790731,-14.508333,-1.597738
28.468934,-6.535656,-6.940141,0.524199
28.502444,-7.492622,0.758091,0.490979
28.536025,-6.055451,-1.385245,-1.735110
28.568888,-6.499592,-3.135768,-2.946021
28.602374,-5.955041,-4.326327,-4.292957
28.636025,-4.721534,-0.634785,-3.860339
28.668628,-5.354674,-1.122921,-5.174055
28.702677,-3.402581,-2.428406,-5.219995
28.736016,-1.969451,-3.211787,-8.470689
28.768912,-4.311064,-1.318803,-8.396166
28.802745,-7.598869,-1.716554,-7.718284
28.835701,-16.254217,3.521847,-5.132454
28.868922,-18.036614,2.889605,-2.824810
28.902726,-15.771469,3.160459,-0.157125
28.935677,-13.605088,3.254435,0.161165
28.968972,-8.495529,0.165655,1.085660
29.002455,-4.035122,-1.941617,2.473598
29.035685,-1.255953,0.783979,0.261726
29.069087,-0.650797,0.515221,0.317393
29.102819,-2.196010,-1.433131,0.669652
29.135784,-4.138076,-1.381055,0.319937
29.168702,-5.942321,0.064346,-1.196545
29.202800,-7.546494,-0.171491,-2.490358
29.235267,-16.804005,-6.459936,-0.465689
29.268920,-21.273990,-7.810913,-2.752532
29.302332,-20.266294,-8.239490,-3.285860
29.335677,-19.980775,-12.063167,-0.198127
29.368845,-10.160606,-10.166592,3.360532
29.402702,-5.146670,-3.594274,3.257428
29.435814,-4.236990,-4.420602,-3.793149
29.469088,-7.443839,-4.689361,-5.741950
29.503225,-8.233505,-4.550642,-4.470733
29.535548,-9.169820,-1.413378,-4.378403
29.568977,-6.750244,1.975736,-4.374512
29.603065,-4.732159,-0.794454,-5.250672
29.635622,-3.584248,-3.511521,-6.357281
29.668960,-4.588053,-4.521013,-7.897107
29.702455,-5.970005,-2.910705,-7.956216
29.735676,-11.962457,1.770575,-5.871091
29.768846,-18.961108,-0.005238,-5.834429
29.802728,-17.580502,-0.862542,-0.135577
29.835684,-12.652760,1.228419,1.326585
29.868911,-7.880198,1.561524,0.443093
29.902657,-3.239022,0.348518,1.342597
29.935805,-2.892000,0.538116,0.125850
29.968844,-1.895976,-1.305784,0.223866
30.002668,-4.098720,-2.740411,0.210099
30.035819,-4.310914,-1.472337,0.592137
30.068908,-5.966564,0.065394,-0.093676
30.102767,-9.462223,-4.147953,-1.829086
30.135783,-17.255029,-8.888791,0.032323
30.168851,-22.198484,-13.142841,-0.118368
30.202782,-19.471540,-13.808901,-0.451473
30.235572,-14.216379,-13.342464,1.543567
30.268912,-8.196692,-8.885200,0.407777
30.302797,-4.673050,1.983667,-1.812475
30.335347,-5.930350,-3.482940,-4.180874
30.368804,-6.974858,-4.780793,-3.278378
30.402364,-6.442877,-3.456153,-4.647760
30.435638,-6.619605,1.646372,-3.603402
30.469184,-4.642223,1.188913,-3.957757
30.502525,-3.759480,-2.920581,-4.440505
30.535952,-3.830411,-5.605026,-6.868312
30.568876,-6.573066,-3.876650,-9.139144
30.602846,-11.859353,0.993779,-5.147119
30.635576,-10.760525,3.504638,-9.509061
30.668907,-18.780788,0.203963,-7.823932
30.702552,-18.219178,1.215101,1.831929
30.735489,-9.394883,2.157103,1.113344
30.768852,-4.492431,0.575078,0.239279
30.802661,-2.304801,-0.080807,0.148446
30.835297,-2.820470,-0.502351,-0.121959
30.868940,-2.116699,-1.714310,0.636431
30.902764,-4.560668,-1.497926,0.776497
30.935563,-4.817755,-0.332357,0.682222
30.968852,-5.570159,0.190196,-0.208004
31.002770,-10.857194,-2.754777,-2.696865
31.035478,-17.543241,-6.981143,-0.656633
31.069113,-21.005829,-7.838597,0.400445
31.102656,-22.670308,-11.419702,0.443841
31.135486,-13.832695,-11.859503,0.976720
31.168853,-7.101456,-10.359781,0.371713
31.202844,-3.165248,-2.571614,0.654389
31.235484,-3.284812,-5.017079,-2.834836
31.268988,-5.755717,-3.124545,-1.064710
31.302690,-9.785601,-5.053891,-3.783872
31.335698,-5.978086,-0.477062,-3.274487
31.368583,-4.913526,1.776411,-4.684423
31.402475,-6.605389,-1.252811,-4.894372
31.435919,-6.496000,-4.891678,-5.007801
31.468911,-4.456517,-4.564858,-9.213067
31.502777,-10.251889,-6.214073,-9.033496
31.535491,-15.136534,1.007995,-6.926224
31.568851,-17.277625,-2.721856,-6.455896
31.602778,-15.142819,-0.476313,-0.604258
31.635541,-10.353945,1.193552,0.629847
31.669084,-7.028580,1.641134,-0.288811
31.702782,-3.599362,-0.745970,0.376202
31.735528,-2.572362,-1.002009,1.653854
31.768981,-1.835969,0.430972,0.646906
31.802828,-1.756060,0.034418,-0.336098
31.835302,-4.814612,-0.706165,-0.365129
31.869084,-7.626702,-0.570888,-1.030591
31.902822,-14.470024,-7.470774,-3.552224
31.935668,-19.725335,-9.299411,-1.933237
31.968852,-20.132064,-12.889346,-2.794432
32.002760,-18.980711,-12.188268,-2.389349
32.035483,-14.740429,-13.287246,-0.493822
32.068934,-9.144980,-5.798215,2.256017
32.102839,-3.683311,3.386869,-2.096947
32.136125,-5.143527,-1.563470,-1.546709
32.168971,-6.655969,-4.002949,0.886335
32.202839,-7.720080,-6.925775,-3.474410
32.235901,-4.365234,-1.949698,-3.144447
32.269082,-3.575868,0.901000,-3.914061
32.302835,-3.543844,-0.981059,-4.576680
32.335542,-4.997177,-2.155158,-4.885992
32.368972,-9.448755,-1.963914,-8.331371
32.402932,-17.010662,-1.115738,-5.751377
32.435644,-13.012053,2.887211,-8.226471
32.469133,-15.802445,2.106075,-6.548824
32.502774,-15.115135,4.457414,0.369917
32.535269,-9.965173,4.090490,-0.015713
32.568807,-5.793876,1.926653,-0.085895
32.602832,-1.982170,-0.317393,0.409273
32.635500,-1.574543,-0.413763,1.198640
32.668931,-0.806575,-0.051926,1.006349
32.702824,-1.642481,-0.712300,0.185108
32.735655,-2.294326,0.122109,0.437406
32.769475,-4.792016,0.720381,-1.407990
32.802773,-18.677684,-6.431355,-1.958078
32.835744,-28.037851,-8.677346,4.525502
32.869217,-15.942511,-6.396488,-4.835413
32.902856,-20.280660,-9.382912,-3.248299
32.935537,-17.793594,-8.959423,-1.118132
32.970065,-7.845780,-3.586193,1.930244
33.002228,-1.074885,-1.630360,-1.240690
33.035546,-0.092479,-2.115502,-3.700072
33.070094,-5.748683,1.054683,-0.742828
33.102214,-9.882420,-5.106117,-2.096049
33.135745,-6.893003,-2.756872,-3.064239
33.169794,-4.924300,-1.188315,-3.734639
33.202118,-3.273739,-2.779019,-4.064901
33.235648,-5.861215,-3.401384,-4.748320
33.269740,-7.927485,-3.809311,-5.597843
33.302211,-12.877823,-1.288126,-7.838746
33.336122,-15.757552,2.329342,-6.925476
33.369446,-20.264349,-0.775899,-7.400442
33.402376,-21.081100,-2.118046,-3.225703
33.436479,-13.844965,0.109090,-0.617876
33.468943,-4.982063,1.501517,-0.364231
33.502468,-1.417568,1.673457,0.177626
33.536442,-2.094552,1.827889,0.620270
33.568880,-2.545277,-1.392877,-0.422592
33.602820,-2.349843,-1.422506,-0.184061
33.636655,-1.400658,0.947090,0.221920
33.668619,0.831566,-0.294946,0.413164
33.702409,-1.487601,-0.029180,-0.317842
33.736376,-8.833722,-0.695989,-0.901898
33.768984,-25.165754,-15.241583,-1.950895
33.802308,-21.478701,-16.608422,-2.741010
33.836064,-25.129390,-20.984580,-4.284128
33.868952,-16.764350,-13.231729,3.303667
33.902796,-9.258559,-5.627772,3.500747
33.935484,-8.210609,-0.331309,-1.694856
33.968846,-3.746311,0.020052,-3.316836
34.002950,-4.583414,0.091881,-5.539034
34.035485,-6.439585,-5.577193,-5.076936
34.068995,-5.023813,-4.260335,-6.097950
34.103224,-2.583585,-3.092820,-6.884024
34.135532,-2.173863,-2.955598,-5.239897
34.168851,0.077066,-1.546859,-5.190665
34.202797,-3.251891,-0.785177,-5.814077
34.235486,-5.021568,-0.424537,-3.744366
34.268916,-13.856638,-1.486254,-3.370408
34.302808,-17.686898,0.591239,-2.428855
34.335484,-18.619623,-0.719783,0.083052
34.368870,-15.411278,0.342832,0.413763
34.402792,-11.949887,-0.076318,0.658279
34.435486,-8.117831,-1.445252,1.596092
34.468916,-2.297618,-0.647804,0.184061
34.502545,-0.667856,-0.634336,0.032024
34.535537,-1.198341,-0.713348,0.237184
34.568977,-2.151866,0.194685,-0.068237
34.602770,-3.417097,-0.773205,0.003292
34.635603,-6.197912,-1.729573,0.013468
34.668918,-16.498434,-6.794538,-2.142438
34.702695,-22.492083,-11.554530,1.488798
34.735338,-18.121462,-12.929749,0.324576
34.768860,-14.918953,-18.626955,-1.187417
34.802754,-7.906984,-16.021672,1.925755
34.835496,-7.190344,-4.301636,0.990936
34.868912,-5.123475,-1.958377,-3.137115
34.902773,-9.179697,-2.252126,-3.494761
34.935488,-8.743937,-4.323334,-2.587327
34.968853,-8.258345,-4.351767,-5.835177
35.002803,-7.963100,-0.374556,-6.043031
35.035533,-7.512226,1.349480,-5.135147
35.069099,-4.597929,-5.283743,-8.773716
35.102775,-4.023600,-5.724441,-8.445698
35.135556,-6.128627,-3.640963,-10.455553
35.168854,-12.172257,0.018107,-4.428982
35.202770,-13.281260,-2.830945,-1.594296
35.235310,-12.672363,-0.189747,0.506541
35.268912,-11.269910,-0.443841,-1.215101
35.302770,-9.924470,1.239044,1.201483
35.335535,-4.813265,1.338556,0.533627
35.368976,-1.123968,-2.134657,-0.217282
35.402829,-1.132049,-0.271153,1.718200
35.435534,-2.813138,-0.731904,1.787934
35.468912,-4.241929,-0.797597,0.511629
35.502773,-6.623646,-1.626170,-0.924644
35.535532,-10.910318,-1.021313,-2.874042
35.568850,-20.229182,-10.314589,-5.240646
35.602636,-23.884660,-11.436013,-1.382402
35.635733,-23.855330,-15.001705,-4.123262
35.668913,-10.110027,-12.723392,4.496920
35.702826,-4.017763,-10.763817,3.524690
35.735293,-2.082282,-6.038392,1.384945
35.768847,-6.101093,-0.099064,0.573581
35.803045,-11.632345,-2.882572,-1.119629
35.835279,-10.120652,-4.942707,-3.671939
35.868861,-8.110797,-4.547051,-4.493029
35.902465,-7.070929,-7.827374,-7.269804
35.935539,-4.440355,-7.419597,-8.440311
35.968980,-2.616657,-3.381182,-7.138268
36.002346,-1.968104,-1.115738,-11.173689
36.035585,-3.050771,1.257899,-6.812196
36.068574,-8.182327,2.367501,-10.363223
36.102411,-14.841887,5.592456,-4.590447
36.135531,-15.828183,3.776988,-1.008444
36.168880,-11.466690,4.898562,-0.593634
36.202845,-9.722602,2.848603,-0.295096
36.235586,-7.065392,0.279084,2.105327
36.268919,-3.128735,0.898756,1.345140
36.302825,-1.299799,-0.557420,0.240027
36.335539,-0.800440,-2.442173,-0.175082
36.369058,-4.775106,-1.895228,0.654688
36.402827,-4.839154,-1.647868,0.104002
36.435523,-3.712342,-0.012271,-1.562272
36.468923,-8.032833,1.886249,-1.840159
36.502881,-15.967501,-15.009936,-4.907840
36.535255,-19.603525,-9.236112,-2.301808
36.568811,-16.924617,-23.140187,1.038821
36.602528,-11.894519,-19.569107,2.145281
36.635810,-3.860788,-6.789450,3.504339
36.669100,-8.150303,-2.382316,2.731433
36.702825,-9.543329,-2.371841,3.685706
36.735738,-10.721468,-5.107164,2.068963
36.768855,-10.695281,-7.066439,-2.510709
36.802831,-9.791587,-2.232972,-4.659881
36.835721,-6.069219,-0.899055,-7.662916
36.868922,-4.645067,-5.906706,-8.091044
36.902819,-4.053229,-6.455896,-10.142649
36.935279,-5.130957,-5.759009,-12.911493
36.968813,-9.108168,-1.410834,-9.862218
37.002525,-12.908350,-0.159819,-9.816428
37.035499,-17.977954,-0.513575,-5.829790
37.069133,-13.701607,1.708324,-0.383086
37.102776,-7.218925,2.238210,0.501454
37.135561,-1.350528,0.186904,2.322608
37.169087,0.196930,-0.795352,1.897173
37.202840,0.390418,-1.103317,2.348945
37.235563,-1.553294,-1.349181,0.962803
37.269067,-3.118260,-2.220851,0.747616
37.302821,-6.603294,-0.932724,0.460002
37.335479,-7.437404,1.269271,0.117619
37.369343,-12.757211,-4.161421,-2.262751
37.402368,-17.314138,-13.114259,-4.443647
37.435484,-18.430175,-19.984067,-5.104770
37.469507,-19.160582,-19.860163,-2.590319
37.502258,-11.469384,-20.879381,-2.240305
37.535710,-8.725082,-9.401917,-1.862905
37.569152,-9.204238,4.039611,-1.353820
37.602202,-8.391976,-0.058361,-1.145966
37.635730,-9.137049,-1.789879,-1.051242
37.669436,-7.700327,-2.129718,-3.400037
37.702151,-6.829554,-2.045469,-3.879044
37.735748,-4.472977,-3.311000,-4.286971
37.769214,-3.265209,-5.338213,-4.987899
37.802193,-3.213582,-6.519794,-6.096903
37.836103,-5.703641,-6.559150,-8.970646
37.868926,-5.061822,-1.653405,-8.336609
37.902258,-8.997432,0.328167,-9.711378
37.936006,-18.615433,2.408803,-7.892917
37.968736,-17.529923,3.224656,-0.793706
38.002409,-11.429429,3.113471,-0.820642
38.036005,-6.835540,2.635961,0.051776
38.068584,-5.092050,0.856706,2.375432
38.102263,-3.022937,1.873530,1.375219
38.135713,-1.481615,-0.047138,-0.108940
38.169007,-1.992197,-0.062551,-0.106396
38.202356,-3.075013,-1.075933,0.082603
38.235996,-3.072768,0.057912,-0.554277
38.269068,-5.268180,-0.070631,-2.530013
38.302384,-12.287332,-7.763177,-4.141518
38.336304,-19.461514,-8.363844,0.844286
38.369057,-21.645703,-11.474472,-2.211723
38.402262,-20.066072,-15.442703,-3.623604
38.435996,-10.623901,-13.315080,0.215785
38.468985,-6.969171,-6.793341,-2.051455
38.502396,-6.099895,-2.231925,-2.815981
38.536002,-9.533004,-2.341463,-2.878981
38.568882,-10.442534,-2.108319,-4.628905
38.602479,-7.446682,0.097717,-2.876736
38.635364,-5.516737,-2.240005,-6.104684
38.669155,-5.270425,-4.424194,-4.865341
38.702393,-5.612957,-7.208450,-6.521440
38.735738,-3.183354,-5.642587,-11.944201
38.768978,-1.780452,-3.006327,-13.115306
38.802399,-6.063981,-1.465004,-11.552136
38.835745,-13.476395,2.925819,-8.583370
38.869102,-15.706973,4.335605,-2.949462
38.902228,-11.636834,5.908652,1.073389
38.935716,-7.046537,4.126853,1.359656
38.968849,-5.266534,2.045769,2.758668
39.002284,-3.548034,1.908696,1.913035
39.036000,-2.310038,-0.947539,1.220638
39.068576,-3.172730,-1.731519,0.749711
39.102215,-2.757022,-0.820343,1.028646
39.135714,-4.647910,0.762730,-0.577322
39.168879,-7.225210,-1.374171,-1.985014
39.202403,-12.365446,-0.645560,-2.190922
39.236230,-20.510661,-5.269826,-1.540724
39.268922,-17.467672,-6.800673,-2.019731
39.302398,-19.314265,-13.320317,-1.385245
39.335741,-9.199899,-20.319417,-2.850997
39.368852,-8.093738,-14.181363,0.329514
39.402346,-7.697783,-2.604236,-1.808734
39.435739,-6.241009,-1.772072,-2.414190
39.468977,-9.071655,0.079909,-2.417931
39.502390,-8.194897,-1.849587,-3.167642
39.535736,-9.708984,-2.878232,-4.444844
39.568808,-9.220549,-4.677988,-4.422099
39.602172,-6.970069,-4.899909,-6.433898
39.635539,-5.950252,-3.753494,-6.043929
39.668985,-2.330240,-2.863717,-9.166079
39.702275,-2.456239,3.353798,-11.758344
39.736013,-12.534243,5.785496,-7.241821
39.768878,-15.211654,4.163665,-8.327331
39.802404,-16.906810,1.173051,-2.242998
39.836003,-10.399137,3.318183,1.217794
39.868962,-6.090917,2.745050,1.159733
39.902397,-1.967655,1.255055,0.988990
39.935716,-1.400059,-1.705331,1.096284
39.968878,0.213391,-3.438047,-1.052888
40.003566,-0.681923,-3.276283,-0.758091
40.035542,-4.942856,-2.370344,1.279447
40.068877,-6.856939,-0.761832,0.498910
40.102192,-11.185361,0.883342,-2.587626
40.135674,-19.002709,-4.444545,-2.496643
40.169032,-21.878697,-4.221577,-2.760463
40.202133,-23.683540,-8.934582,-3.319679
40.235630,-16.470152,-13.359973,0.248407
40.268945,-6.630380,-14.699876,1.167215
40.302889,-3.460194,-5.233313,0.862841
40.335758,-2.711081,-1.345140,-1.018470
40.368862,-5.393281,-1.686476,-2.774829
40.403056,-6.995658,-2.785304,-3.872909
40.435529,-8.716103,-7.738486,-5.129012
40.469318,-6.791096,-4.289066,-6.455896
40.503076,-7.768115,0.302279,-6.273332
40.535468,-5.252019,-0.420646,-5.242292
40.568778,-4.496471,-4.582067,-8.211657
40.602694,-7.402837,-2.655115,-7.225061
40.635472,-10.825919,-2.269485,-6.811597
40.668919,-13.317773,-0.332058,-6.430008
40.703650,-17.058548,-0.732652,-2.645238
40.735484,-14.619068,-0.348219,-1.081919
40.768852,-10.708449,1.347684,-0.104900
40.803540,-3.667599,-0.542156,2.433793
40.835571,-2.364658,-0.434713,2.342810
40.868824,-1.257749,-0.953226,0.176728
40.902305,-2.748492,-0.957715,3.704710
40.935669,-4.011478,-0.427380,3.250694
40.968798,-3.773546,-0.401642,0.379195
41.003033,-11.064300,-2.031104,0.827226
41.035685,-18.277390,-8.369979,-0.769314
41.069001,-21.710947,-9.359568,1.240241
41.103099,-19.290323,-10.704708,-3.571079
41.135830,-21.546190,-16.064619,-0.858053
41.168810,-12.010792,-13.070264,0.345974
41.202392,-4.714800,-8.923059,-0.251400
41.235588,-4.807878,-1.735709,-0.451772
41.268922,-5.266384,-1.813972,-2.037538
41.302562,-10.106735,-2.209179,-1.452434
41.335382,-9.041427,-3.217024,-2.423767
41.368812,-5.005407,-0.917910,-3.107934
41.402427,-4.655991,-0.648403,-4.045896
41.435646,-4.627110,-3.600409,-3.921842
41.469102,-4.369574,-5.283294,-5.524967
41.502437,-6.140299,-3.002436,-7.267709
41.535601,-7.530632,3.426674,-5.993050
41.568978,-10.159110,3.572576,-6.028965
41.602960,-15.108550,2.644789,-7.802084
41.635837,-17.717276,-0.052674,-0.043396
41.668961,-12.695259,2.172067,1.731369
41.703073,-6.163194,3.801829,2.079438
41.735500,-2.445166,0.938710,1.447347
41.768851,-0.242871,-1.051990,0.664714
41.802941,0.003143,-1.855273,0.190645
41.835495,-2.034845,-2.193616,0.189149
41.868923,-5.391935,-1.930095,-0.652743
41.902691,-8.670612,-0.971332,1.128906
41.935496,-11.725722,-3.031168,-2.701055
41.968857,-18.949735,-15.733310,-1.323293
42.002406,-19.800156,-13.518893,-3.214779
42.035550,-21.053565,-15.411727,-2.626832
42.068924,-16.378271,-13.498243,-0.415409
42.102686,-9.500232,-4.044400,1.945508
42.135495,-4.429132,1.235003,2.563384
42.168849,-3.555516,-0.793108,0.873915
42.202669,-7.990036,-4.667214,-0.223716
42.235548,-9.751483,-7.178821,-2.371242
42.268915,-7.655733,-5.508357,-3.382529
42.302770,-7.386974,-0.513126,-4.221128
42.335549,-5.652014,-1.078028,-5.021718
42.368985,-4.382593,-3.313993,-6.031209
42.402798,-6.355186,-2.782461,-8.805889
42.435273,-11.034821,-3.397942,-8.218989
42.468859,-12.403605,0.220125,-6.542240
42.502597,-17.143994,-4.286821,-6.050813
42.535548,-16.896484,-3.680319,-0.180918
42.568982,-11.852320,-0.000748,2.285646
42.602688,-3.822479,1.597588,2.644789
42.635688,-0.839048,1.033135,1.140579
42.669100,-1.135640,-0.687160,0.033670
42.702728,-1.953589,-1.907648,1.114541
42.735549,-4.263627,-0.662769,0.915964
42.768982,-4.908588,0.003143,0.213241
42.802841,-6.213325,-0.821091,-1.960622
42.835543,-11.315551,-1.243533,-5.564174
42.870416,-24.550272,-11.252401,-0.200222
42.902634,-21.191237,-8.858713,-3.603253
42.935516,-17.167338,-15.941463,-2.245542
42.968979,-14.870917,-16.021971,1.537731
43.002823,-6.017143,-10.127386,1.462909
43.035647,-7.447580,-1.273611,-0.185557
43.068957,-6.005171,-1.253559,-3.291097
43.102740,-5.772177,-1.478921,-3.587690
43.135493,-7.497561,-5.930649,-4.292957
43.168875,-6.922782,-4.613791,-4.040659
43.202786,-5.496086,-2.567574,-6.127879
43.235495,-2.974303,-4.093782,-5.246631
43.268914,-1.189362,-2.922976,-5.091601
43.302616,-2.655564,0.123904,-7.072425
43.335545,-3.789109,3.653832,-6.767752
43.368978,-9.137498,3.134720,-6.941338
43.402649,-15.905250,3.835349,-5.392833
43.435545,-16.365402,2.381717,0.170294
43.469097,-12.711869,4.449783,0.835008
43.502638,-7.685362,2.514151,0.834110
43.535502,-5.302598,-0.133182,1.385993
43.568851,-4.355807,-0.978366,0.162063
43.602656,-2.160994,-2.727991,0.361986
43.635543,-1.860810,-2.568172,0.044145
43.669361,-2.914147,-1.221236,-0.805977
43.702461,-5.118986,0.720830,0.285070
43.735644,-7.600814,0.676985,-2.291482
43.768855,-12.433384,-3.449120,-3.218072
43.802553,-21.684011,-13.677365,-2.374534
43.836212,-19.547858,-12.570307,-2.311984
43.868890,-19.646473,-19.228670,-2.248834
43.902752,-9.996747,-14.879896,1.741694
43.935748,-6.290989,-5.173306,1.649215
43.969143,-3.853904,1.007247,-0.217880
44.003905,-8.965408,-3.085338,-1.057377
44.035496,-8.538178,-3.271793,-1.137436
44.069190,-8.561971,-5.175551,-3.914510
44.102843,-7.033817,-3.855102,-4.387082
44.135496,-6.192075,-3.484286,-5.421863
44.169437,-7.120011,-4.023151,-5.744643
44.203316,-4.403393,-3.638718,-8.291566
44.235547,-4.372118,-0.026936,-11.379149
44.269456,-9.275319,3.475308,-8.309822
44.303180,-15.749771,3.119607,-7.635382
44.335493,-19.779805,0.444739,-0.872568
44.368961,-13.314182,2.811941,-0.088589
44.403448,-5.034887,2.993458,-0.681175
44.435548,-2.090362,1.446748,2.150968
44.469404,-0.197379,-0.339839,1.112146
44.503228,0.145453,-1.819958,0.035166
44.535495,0.368571,-3.430864,1.356214
44.569183,-5.977488,-2.721257,1.482662
44.602813,-7.160415,-1.510795,0.898157
44.635506,-12.688525,-2.946021,-1.992346
44.669554,-21.646301,-15.456021,-0.423938
44.702194,-18.481652,-9.468657,-1.586515
44.735517,-15.400055,-15.551494,-1.599234
44.769593,-14.114323,-14.211291,1.725832
44.802380,-4.587005,-12.079927,3.455555
44.835513,-7.529734,-3.327161,3.980951
44.869659,-6.698168,0.260977,-0.744923
44.902430,-8.791373,0.289409,-1.540873
44.935516,-8.425796,-4.404890,-4.214394
44.969456,-5.125421,-6.907967,-4.970839
45.002395,-9.173262,-6.199857,-5.526015
45.035514,-6.219161,-3.846871,-5.146969
45.069527,-2.948265,-1.930544,-6.117404
45.102340,-2.911004,-1.369083,-6.878338
45.135521,-3.588438,0.179572,-6.772092
45.169369,-8.283934,-0.181218,-7.784725
45.202389,-13.627684,3.575419,-6.346357
45.235525,-19.008994,1.620783,-2.410299
45.269155,-16.403261,2.221450,-0.617427
45.302262,-11.450828,3.091773,-0.138719
45.335664,-7.634185,2.538094,2.635063
45.369379,-2.555453,0.797597,-0.426482
45.402227,-0.789666,-0.928834,0.541408
45.435690,-1.533391,-2.917738,1.886998
45.469456,-2.724549,-2.350292,0.781286
45.502104,-3.491469,-0.413763,-0.449827
45.535710,-6.190878,-1.349630,-0.136025
45.569366,-12.993497,-1.140579,-1.064261
45.602023,-19.240192,-11.314653,-1.511394
45.635275,-19.045357,-11.752358,-1.035380
45.669218,-22.783887,-15.123964,0.378896
45.701922,-15.857214,-13.722707,2.963828
45.735295,-6.997155,-13.075352,2.050557
45.769064,-4.438260,1.708025,-0.351811
45.802310,-7.632239,0.247809,-0.725319
45.835684,-8.922161,-3.170784,0.585104
45.869464,-8.251162,-4.035870,-2.307494
45.902294,-7.102503,-4.515476,-2.612766
45.935744,-6.906172,-1.006947,-2.783957
45.969359,-7.694940,-2.814784,-4.354759
46.001931,-5.631064,-8.437019,-5.821260
46.035730,-4.492431,-8.832974,-8.820404
46.069455,-4.118024,0.706015,-11.253599
46.101941,-9.928211,1.245179,-8.524410
46.135262,-15.416665,4.620076,-6.863673
46.169076,-15.164816,3.420239,-1.467249
46.201974,-10.728651,3.977659,-1.493137
46.235650,-6.297274,3.989631,0.947240
46.269023,-2.912800,2.365705,1.821454
46.302197,-1.293065,0.158771,0.864936
46.335283,-0.143208,-2.663196,1.384646
46.369360,-0.671747,-2.245243,0.691350
46.402205,-2.459083,-1.842703,0.969537
46.435585,-3.790007,-0.749113,2.004916
46.469719,-9.021973,-2.173265,0.982855
46.502051,-13.456642,-10.609835,-2.850848
46.535885,-21.659769,-12.741049,-0.093527
46.569763,-25.211395,-13.845863,-1.723737
46.602261,-23.632213,-15.526653,-0.343131
46.635525,-14.906682,-15.601025,-2.569220
46.669117,-9.444715,-3.899396,-0.691201
46.701932,-5.435331,5.710225,-1.438667
46.735711,-4.393068,0.335200,-3.553272
46.769390,-7.348067,-2.469558,-2.047415
46.802621,-6.875046,-4.632347,-3.845973
46.835580,-5.196950,-4.071635,-3.787164
46.868990,-5.263242,-1.261789,-3.572426
46.902283,-5.556392,-3.007674,-5.247978
46.935736,-6.741714,-5.130808,-6.368056
46.969126,-9.514897,-2.407755,-7.823633
47.002531,-11.724525,-0.420048,-6.649684
47.035560,-11.786926,3.641860,-6.018639
47.069124,-16.484368,3.560604,-1.699046
47.102306,-13.514853,4.571891,2.015092
47.135552,-9.357922,4.541663,1.317457
47.169372,-3.030419,1.741994,1.611505
47.202313,-1.612852,0.376651,0.246163
47.235727,-1.496878,-0.975223,-0.821390
47.269447,-1.552246,-1.550002,0.204113
47.302265,-2.256915,-0.491278,0.715293
47.335737,-2.048911,-0.740733,-1.598785
47.369347,-4.299092,-0.042798,-1.417867
47.402326,-12.407795,-1.414724,-5.471844
47.435600,-22.087000,-8.973938,-1.992197
47.469243,-18.857406,-9.523277,-0.333105
47.502264,-19.803748,-14.588841,-1.120975
47.535747,-12.705584,-14.732198,-1.054085
47.569354,-7.860445,-13.583838,-0.218628
47.602226,-9.001323,-0.285070,-0.036663
47.635708,-6.033604,-2.962032,-1.064410
47.669567,-7.127194,-2.469408,-1.241438
47.702024,-8.957028,-5.787441,0.376202
47.735932,-10.881287,-7.744172,-1.076980
47.769349,-10.376541,-4.184466,-3.936956
47.802075,-10.635274,-1.622878,-4.623368
47.835880,-6.749495,0.292552,-5.634805
47.869115,-4.736648,-4.493628,-10.278974
47.902290,-5.757063,-9.309437,-11.531037
47.935806,-6.825963,-12.732370,-14.150387
47.969133,-13.845564,-8.159431,-8.691562
48.002366,-18.149894,-1.453332,-1.618089
48.035996,-11.977870,2.543631,-0.150541
48.069184,-6.535356,2.452349,-0.474069
48.102395,-4.790669,0.679229,1.704882
48.135967,-2.824062,0.387126,2.125678
48.169884,1.384945,-1.223181,1.381653
48.202362,0.695840,-1.440613,2.364807
48.235937,-1.540574,-2.293577,3.426823
48.269421,-3.309952,-0.909679,0.610094
48.302306,-6.254626,-2.915643,-0.108940
48.335853,-15.799003,-9.149170,0.549040
48.368595,-23.626077,-8.505555,4.601072
48.402357,-20.591767,-5.114497,-0.332058
48.436073,-22.069791,-14.032618,0.920753
48.469244,-11.993134,-13.235769,3.917802
48.502412,-5.015134,-9.574904,-0.863141
48.536385,-7.515518,1.900615,-2.252126
48.568687,-9.439028,-3.332698,-2.267390
48.602305,-8.886696,-1.615994,-1.185771
48.636171,-7.034865,-7.475563,-2.881525
48.668652,-7.857302,-6.023278,-4.260035
48.702357,-6.243702,-2.632369,-5.681943
48.736296,-2.778570,-2.733378,-6.822521
48.769061,-2.802663,-2.788297,-7.722624
48.802720,-2.990165,-1.538479,-8.188312
48.835734,-4.601072,1.783594,-7.663365
48.868837,-8.780898,1.822352,-6.385564
48.902767,-10.737480,3.971225,-5.838768
48.935493,-13.368951,1.622429,-1.644426
48.969047,-13.167083,3.481443,1.373872
49.002614,-8.756806,4.336054,0.113429
49.035479,-4.503056,2.152165,1.683483
49.069144,-3.223309,-0.941853,-0.063898
49.102114,-2.805656,-2.632070,-0.373509
49.135547,-5.604577,-4.405937,1.520372
49.169679,-4.196736,-3.332997,-0.096220
49.202290,-2.953054,-1.922014,0.550536
49.235655,-8.293362,0.463893,1.334217
49.269884,-11.559469,-1.927102,-1.144320
49.302267,-16.904864,-6.692482,1.941019
49.335510,-21.855951,-12.836522,-3.313394
49.369629,-21.998561,-12.191261,-3.394501
49.402283,-15.767279,-12.726534,-1.418914
49.436014,-5.709028,-13.158254,-1.407392
49.469350,-2.032750,-1.953738,-1.440313
49.502204,-2.953054,0.318141,-0.670849
49.536025,-12.440417,-5.701396,3.173777
49.568871,-11.582663,-3.527832,0.963551
49.602315,-11.695195,-4.283978,-1.814421
49.636029,-8.695303,-1.833575,-1.921565
49.668986,-10.076357,-4.047991,-4.227264
49.702304,-7.668902,-6.066375,-5.590062
49.736015,-4.555281,-4.850676,-13.138501
49.768658,-6.354438,-5.002564,-13.055599
49.802374,-13.025670,-0.133332,-8.262086
49.836024,-16.815228,-5.132454,-0.713348
49.868949,-10.889817,0.215486,-0.168049
49.902334,-8.404696,0.628351,0.265317
49.936020,-3.834152,1.510945,1.947453
49.968685,-0.539762,-1.868292,1.570054
50.002306,-0.199923,-0.698084,0.390718
50.036015,-2.647333,-3.111526,1.930544
50.068941,-4.663024,-1.730022,1.498225
50.102303,-5.090254,-0.610843,0.857155
50.136025,-7.133180,0.457758,-1.731967
50.168584,-13.169776,-3.133523,-3.399289
50.202166,-24.517500,-15.877117,-2.207533
50.235954,-22.776704,-15.760994,-0.855060
50.269261,-19.097134,-13.389303,2.246290
50.302354,-9.267687,-14.546043,2.044272
50.336078,-7.004786,-1.187716,1.040168
50.368862,-8.895974,1.396318,-2.358373
50.402365,-7.083648,1.452734,-1.306533
50.436030,-7.152634,-5.500426,-2.818675
50.468981,-8.350076,-11.076122,-3.482042
50.502303,-8.644125,-3.312197,-3.105690
50.536022,-2.840672,-4.184017,-5.092798
50.568939,-1.908845,-5.395526,-5.290327
50.602315,-5.074392,-3.542049,-6.291139
50.636021,-5.966264,1.494484,-4.885094
50.669023,-6.709541,1.354867,-5.521825
50.702012,-14.199919,0.981059,-5.864058
50.735724,-20.275273,1.706977,2.063726
50.768863,-12.653957,3.036405,-0.748215
50.802316,-10.150730,0.346423,-0.666959
50.836025,-6.531017,-1.024306,2.191671
50.869031,-3.154473,-0.085895,0.147698
50.902303,-2.808200,-1.441211,0.679379
50.936020,-4.875218,-1.381055,3.096711
50.969359,-3.119307,1.840459,2.999294
51.002310,-3.506733,4.399503,3.313095
51.036023,-9.622041,2.889905,2.330839
51.069263,-16.755670,0.164308,-1.003805
51.102194,-25.807123,-9.562933,-2.776176
51.135770,-19.863305,-10.512567,-3.559557
51.169049,-11.665566,-10.453158,-1.942814
51.202267,-5.219546,-13.919338,1.309226
51.236024,-2.730385,-3.562550,3.355145
51.268596,-2.945721,-5.108661,3.243212
51.302223,-7.388022,-0.207854,4.855914
51.335764,-11.837356,-12.145022,0.173735
51.368880,-9.333829,-1.441361,0.340887
51.402993,-10.132773,-3.595920,-6.885222
51.435562,-7.118066,-5.605774,-5.411538
51.469086,-2.803411,-7.684315,-10.546236
51.502831,-3.795394,-0.789067,-13.322263
51.535546,-6.137905,5.309930,-12.597542
51.568626,-12.507606,8.074733,-10.066631
51.602929,-11.915619,4.353263,-2.510709
51.635492,-6.699215,3.456004,-1.828936
51.669136,-5.681344,4.156183,-1.135191
51.702613,-3.126939,2.256167,1.606267
51.735546,-2.184338,1.299200,-1.312967
51.769532,-1.058873,0.673992,1.154645
51.802680,-3.257428,-1.979327,1.575591
51.835641,-2.254521,-1.487152,0.313951
51.870013,-3.177369,-0.799692,-0.063598
51.902401,-7.073622,-0.701227,-1.327483
51.935645,-11.561863,-3.047928,-7.403435
51.971184,-20.452300,-11.309864,-4.762836
52.002619,-22.118275,-7.753001,-4.477467
52.035519,-25.603160,-11.546150,-2.199153
52.070224,-14.891718,-12.316363,1.046603
52.102355,-2.955299,-8.145215,5.183632
52.135666,0.752255,-4.469835,0.961007
52.170162,-3.990229,-2.087070,-1.919171
52.202355,-11.389175,-1.277651,-0.227008
52.235838,-11.141666,-5.643335,-1.610008
52.270092,-8.454677,-5.971951,-3.835199
52.301963,-9.597350,-4.369275,-6.743659
52.335575,-4.393816,-3.715485,-6.176962
52.369186,-2.381119,-3.738380,-9.420173
52.402287,-4.598528,-3.088780,-10.091172
52.436014,-5.811234,-0.958613,-6.969920
52.468910,-7.606800,1.645324,-9.437831
52.502273,-16.357770,-4.603915,-4.628905
52.535978,-16.966667,-2.070310,0.216982
52.569072,-12.707380,-0.027235,-0.589444
52.602360,-9.053099,0.550087,0.729210
52.635832,-6.572917,-0.817050,3.565243
52.669124,-4.301786,1.768331,0.161315
52.702404,-4.389477,-0.057313,0.901748
52.736258,-6.087924,-2.211423,2.165333
52.768713,-0.871820,-0.463594,-2.709884
52.802037,-2.786052,-1.073389,-3.170934
52.836203,-7.653638,1.823250,-2.301957
52.868631,-10.629737,-0.761982,-5.682990
52.902787,-23.399368,-12.472291,-0.825730
52.936122,-24.473655,-13.711783,-0.889478
52.968860,-15.882205,-18.294000,0.338492
53.002761,-5.690173,-13.287097,3.446576
53.035698,-4.425690,-2.646436,2.374385
53.068934,-8.254455,-2.130167,-1.407542
53.102810,-10.471864,-1.198191,-1.480717
53.135500,-9.713324,-4.898412,-3.723117
53.168858,-7.593182,-5.216553,-5.640192
53.202760,-7.666956,-2.605433,-7.137071
53.235499,-8.883254,-1.238744,-7.239576
53.268918,-6.133565,-5.200392,-7.561757
53.302258,-3.945187,-0.032173,-10.031914
53.335545,-3.261318,1.469194,-8.487449
53.369056,-7.023342,0.764675,-8.785687
53.402044,-14.780234,1.035978,-6.392597
53.435537,-17.508973,0.357497,1.291119
53.468914,-11.634141,2.076745,2.099191
53.502605,-5.581383,3.070075,0.493822
53.535649,-3.204155,1.322694,1.144918
53.568805,-3.639616,-0.180320,-0.193937
53.602782,-3.832206,-2.087968,-0.232695
53.635492,-4.725126,-1.931442,1.001261
53.668913,-4.256893,-1.792573,0.077814
53.702799,-3.062144,-1.411582,-1.450040
53.735497,-5.356320,-0.493971,-1.319402
53.768985,-8.401404,-0.633439,-3.434306
53.802121,-20.852595,-8.550598,-1.489396
53.835602,-20.275871,-7.183161,-0.198427
53.869162,-22.037617,-14.647949,-2.771986
53.902263,-15.597733,-15.062161,-0.952028
53.935415,-8.252659,-11.170397,1.399610
53.968745,-6.198510,-3.388515,-1.115738
54.002230,-6.599404,-0.327718,-6.029713
54.035425,-6.896744,-4.695197,-3.201312
54.068802,-9.667084,-7.694640,-4.864144
54.101944,-9.115051,-2.441275,-4.508143
54.135438,-7.883041,0.023045,-6.239063
54.168799,-6.460685,2.577600,-5.543373
54.202336,-4.274401,-1.719697,-6.658961
54.235492,-4.885842,-1.606267,-9.382463
54.268841,-6.785410,0.328915,-7.347768
54.302487,-8.327031,3.400037,-8.455874
54.335546,-11.851272,5.317861,-8.879663
54.368845,-17.807810,2.960237,-2.834088
54.402787,-11.509937,3.459446,-0.245564
54.435549,-6.607484,3.036854,1.163624
54.469098,-4.070737,0.915815,2.226388
54.502819,-0.613686,0.550536,-0.117919
54.535274,-0.520608,-0.864487,-0.511031
54.568830,-2.908311,-1.709970,0.839497
54.602485,-3.022638,0.187802,-0.650947
54.635544,-2.041878,-0.584954,0.363632
54.669087,-4.856811,-1.343494,-0.460601
54.702810,-10.876947,-4.245969,-3.589785
54.735637,-26.044008,-10.225402,1.577237
54.768854,-22.676144,-9.920130,-1.046154
54.802742,-21.317386,-14.187498,-2.911004
54.835549,-14.132280,-19.535587,-0.978366
54.869092,-9.591215,-10.407517,1.812924
54.902823,-6.040188,0.194985,-2.608725
54.935531,-7.623410,-2.284898,-5.247380
54.968980,-7.172087,-0.406730,-3.385073
55.002784,-8.500617,-4.172345,-5.604577
55.035550,-8.055579,-3.015156,-4.142566
55.069259,-6.424022,-2.779318,-5.568663
55.102820,-6.553164,-2.128222,-4.441702
55.135499,-4.803988,-4.454422,-5.525267
55.169355,-4.953032,-5.250223,-7.409571
55.202833,-7.640919,0.686861,-6.960043
55.235543,-13.879982,3.484885,-5.808690
55.269489,-19.540226,1.474731,-3.000191
55.302850,-13.768049,2.277566,1.583821
55.335545,-7.776196,1.818910,0.000299
55.369384,-3.554918,0.830369,0.727714
55.402819,-2.890952,-2.369746,-0.722925
55.435550,-1.131151,-3.222711,-0.359442
55.469447,-3.993072,-4.339795,1.428492
55.502825,-5.884260,-2.656611,2.676963
55.535501,-4.256145,-0.334302,1.830433
55.569462,-5.167770,-0.682521,-1.464556
55.602405,-8.080270,-0.585254,-3.575569
55.635268,-19.666226,-12.375472,-3.531274
55.669699,-19.587962,-7.716488,-1.152550
55.702223,-21.217873,-12.605323,-3.117362
55.735475,-17.869164,-11.974728,1.956881
55.769923,-6.609430,-9.336972,4.182520
55.802291,-2.847705,-1.369383,1.010090
55.835649,-5.458077,-0.664864,-2.776326
55.869917,-9.176405,-3.600858,0.873316
55.902415,-11.161718,-6.314034,0.109988
55.936028,-8.847041,-6.230234,-2.241352
55.969258,-6.514257,-5.130508,-4.443797
56.002555,-5.450595,-2.028410,-7.424086
56.036028,-7.123902,-5.445058,-9.228481
56.069214,-6.162895,-2.338770,-10.353795
56.102770,-5.271921,0.757642,-11.276045
56.135822,-8.794366,5.812880,-7.891421
56.169633,-14.764521,2.423767,-6.524732
56.202310,-12.517184,1.590256,0.128094
56.235727,-9.029006,4.051882,0.605455
56.269436,-5.699301,2.136452,2.029757
56.302684,-3.124545,0.160417,2.073752
56.335644,-0.555924,-0.868977,0.211894
56.369429,-0.432917,-3.287057,0.489183
56.402658,-2.233720,-3.696330,1.167963
56.435675,-3.625699,-3.513766,0.305721
56.469475,-6.556456,-0.743725,1.898221
56.502546,-8.882656,1.029693,-1.732416
56.535653,-20.044373,-11.321686,0.231647
56.569165,-21.324868,-9.652868,-2.151417
56.603245,-24.403173,-13.204344,-0.046090
56.635588,-16.673367,-17.383871,2.144234
56.669263,-7.167299,-14.338189,2.024370
56.702082,-3.855251,-5.592456,-1.211060
56.735311,-3.739428,2.494099,-1.107657
56.769030,-8.212704,-3.815895,-2.116849
56.802548,-7.757640,0.865086,-0.354504
56.835645,-8.806487,-2.475094,-1.062914
56.869174,-9.045168,-7.197377,-2.644191
56.902533,-7.192588,-2.311535,-3.781926
56.935645,-5.144575,-2.481379,-6.024475
56.969349,-4.039761,-7.789813,-6.805911
57.002539,-4.800396,-6.888813,-8.510943
57.035648,-8.187265,-4.299242,-10.305760
57.069091,-10.486978,3.084291,-6.433599
57.102556,-21.149936,-3.101200,-4.193295
57.135771,-19.356764,-3.448522,0.762580
57.168863,-9.418976,1.341848,-0.540061
57.202780,-3.368912,0.725170,1.209115
57.235497,-2.476441,0.004190,1.577835
57.268909,-1.882059,-0.209350,1.261340
57.302766,-2.888259,-0.216533,2.679656
57.335501,-4.349821,0.298388,2.846957
57.368849,-2.380969,0.976869,-0.227757
57.402786,-1.986061,0.134529,-1.012484
57.435497,-11.444842,-5.224634,-6.281562
57.468994,-22.463950,-12.385647,-1.057078
57.502400,-20.793187,-12.083818,-5.764546
57.535976,-20.624539,-13.119347,-4.372866
57.568879,-13.650280,-14.317837,-0.105498
57.602812,-7.183310,-7.181964,1.593398
57.635493,-3.872610,2.000577,-1.567959
57.668909,-6.381523,-1.383000,-3.881439
57.702881,-9.020477,-1.074586,-2.839475
57.735496,-7.881245,-4.902453,-5.356320
57.768848,-6.730491,-1.054833,-3.348111
57.802820,-5.584974,0.080658,-2.639402
57.835352,-4.869681,-0.174633,-4.386184
57.868857,-5.334472,-1.900615,-4.948094
57.902470,-7.033817,-1.424601,-5.311277
57.935620,-9.973553,2.724699,-3.704112
57.968977,-13.194168,2.946470,-3.801529
58.002785,-15.136983,3.615374,-4.626511
58.035567,-15.286326,2.504125,-0.715593
58.069095,-11.233995,1.995788,0.280132
58.102770,-5.779061,-0.479905,-0.217132
58.135550,-3.312945,-1.252362,-0.469580
58.168982,-2.826157,-1.380755,-0.840544
58.202834,-1.719996,-1.787784,-0.363034
58.235550,-3.595770,-1.072341,0.045791
58.268911,-3.712941,-0.515370,-1.291269
58.302844,-5.554746,-0.126748,-1.122023
58.335543,-9.378273,0.092629,-1.791525
58.368851,-15.715353,-6.998501,-5.179442
58.403284,-21.168042,-8.081767,-2.492752
58.435488,-23.789039,-11.740237,-3.487429
58.468920,-18.974127,-10.390009,0.783830
58.502763,-11.417906,-9.101134,3.548932
58.535493,-5.236156,-2.578947,1.164671
58.568849,-4.440056,0.380841,-3.045084
58.602555,-5.634057,-0.721429,-0.805079
58.635547,-8.086256,-6.265101,-1.787635
58.669090,-8.314162,-5.596796,-3.665504
58.702767,-7.381587,-0.579866,-3.189041
58.735546,-5.086513,0.945743,-3.766064
58.768848,-3.952818,-2.770490,-6.332590
58.802833,-4.236541,-4.508293,-8.166315
58.835543,-8.062313,0.707961,-7.897107
58.868909,-10.117509,4.905146,-7.205906
58.902813,-15.485052,2.105027,-7.357345
58.940755,-22.668961,-1.920368,-0.202467
58.968814,-14.477955,3.198768,4.901854
59.002526,-6.160052,3.643058,2.770938
59.036143,1.668519,1.111697,0.231198
59.068917,1.505558,-2.362264,-0.627603
59.102810,0.428128,-2.470605,-0.437706
59.136082,-1.533840,-1.507204,0.671149
59.168847,-3.249197,0.656633,1.324639
59.202765,-4.613043,1.642631,1.009491
59.235833,-8.539973,-0.094275,-2.055346
59.269045,-13.859780,-3.563747,-5.893987
59.304512,-21.385623,-9.777221,-3.580058
59.336147,-19.706330,-13.075052,-3.397344
59.368804,-21.101900,-17.330898,-1.505558
59.402426,-15.278545,-17.741219,2.402817
59.435793,-8.017420,-9.256613,-2.550065
59.468644,-8.938921,2.272927,-3.541749
59.502823,-8.224676,-1.559130,-4.885992
59.535693,-11.118770,-1.263585,-3.933215
59.568875,-8.791822,-2.836183,-5.070053
59.602402,-6.425518,-2.890204,-7.020798
59.635781,-4.685919,-0.479306,-4.138825
59.668601,-2.693274,-2.179699,-3.951322
59.702457,0.187353,-6.053207,-6.063083
59.735775,-1.880264,-4.734553,-7.024689
59.769152,-5.500426,1.058275,-5.177496
59.801946,-6.674375,4.565307,-6.060240
59.835615,-12.234957,5.658299,-8.846592
59.869416,-17.721316,2.114754,-3.258625
59.902209,-15.728072,3.309354,2.931655
59.935618,-9.020178,5.067359,0.255441
59.968697,-3.878147,1.057078,0.393411
60.001955,-3.527683,-0.672346,2.301209
60.035434,1.104664,-2.546624,-0.669652
60.068845,0.233892,-4.080614,-0.569691
60.102350,-3.164649,-2.110265,0.672645
60.135557,-4.892277,-1.827739,0.152636
60.169139,-4.720038,-1.211958,-0.342233
60.202143,-9.977892,-3.788660,-4.494825
